"Time (s)","Acceleration x (m/s^2)","Acceleration y (m/s^2)","Acceleration z (m/s^2)"
4.933679400E-2,-3.748050213E0,2.785050154E0,9.670050621E0
5.183664200E-2,-3.619050264E0,2.779950142E0,9.462000847E0
5.433910100E-2,-3.405000210E0,2.764950037E0,9.418950081E0
5.684156300E-2,-3.235050201E0,2.773050070E0,8.989950180E0
5.934404600E-2,-3.207000256E0,2.758050203E0,8.935050011E0
6.184650800E-2,-3.199950218E0,2.670000076E0,8.884950638E0
6.434896900E-2,-3.244950056E0,2.566950083E0,8.752950668E0
6.685144800E-2,-3.469950199E0,2.530950069E0,8.449049950E0
6.935390900E-2,-3.693000078E0,2.595000029E0,8.149050713E0
7.185637100E-2,-3.673950195E0,2.667000055E0,7.977000237E0
7.435883200E-2,-3.556050062E0,2.694000244E0,8.026950836E0
7.686129400E-2,-3.283050060E0,2.677050114E0,8.125050545E0
7.936375600E-2,-3.019950151E0,2.590950012E0,8.152050018E0
8.186624600E-2,-2.866950035E0,2.533050060E0,8.038949966E0
8.436870800E-2,-2.869050026E0,2.521050215E0,7.837950230E0
8.687119700E-2,-2.934000254E0,2.503950119E0,7.630050182E0
8.937365900E-2,-3.022050142E0,2.500050068E0,7.471950531E0
9.187612000E-2,-3.111000061E0,2.514000177E0,7.347000122E0
9.437856000E-2,-3.208950043E0,2.548050165E0,7.203000546E0
9.688102100E-2,-3.244950056E0,2.545050144E0,7.012050152E0
9.938348200E-2,-3.322050095E0,2.551950216E0,6.958950520E0
1.018859370E-1,-3.409950256E0,2.566950083E0,6.969000340E0
1.043883990E-1,-3.421950102E0,2.581050158E0,7.066950321E0
1.068908610E-1,-3.384000063E0,2.536050081E0,7.219950199E0
1.093933410E-1,-3.334050179E0,2.551950216E0,7.396950245E0
1.118958030E-1,-3.319050074E0,2.569050074E0,7.603050232E0
1.143982650E-1,-3.384000063E0,2.551950216E0,7.855050564E0
1.169007360E-1,-3.513000250E0,2.503950119E0,8.176050186E0
1.194031970E-1,-3.661950111E0,2.425050020E0,8.587950706E0
1.219056580E-1,-3.774000168E0,2.353950024E0,8.940000534E0
1.244081190E-1,-3.873000145E0,2.290950060E0,9.316050529E0
1.269105800E-1,-4.042950153E0,2.209950209E0,9.667950630E0
1.294130410E-1,-5.226000309E0,1.285050035E0,1.029795074E1
1.319155030E-1,-4.681950092E0,1.537050128E0,1.045800018E1
1.344179650E-1,-3.657000065E0,2.169000149E0,1.062795067E1
1.369204270E-1,-3.175950050E0,2.593050241E0,1.120800018E1
1.394228880E-1,-3.070050240E0,2.782050133E0,1.158405018E1
1.419253500E-1,-3.328950167E0,2.812950134E0,1.172295094E1
1.444278310E-1,-3.544050217E0,2.686050177E0,1.187595081E1
1.469302920E-1,-3.714000225E0,2.530950069E0,1.206000042E1
1.494327530E-1,-3.904050112E0,2.397000074E0,1.203195095E1
1.519352410E-1,-4.054950237E0,2.308050156E0,1.187100029E1
1.544377020E-1,-4.150050163E0,2.253000021E0,1.165095043E1
1.569401630E-1,-4.102050304E0,2.236050129E0,1.134900093E1
1.594426250E-1,-3.967950106E0,2.169000149E0,1.084605026E1
1.619450870E-1,-3.850950241E0,2.131050110E0,1.024305058E1
1.644475490E-1,-3.850950241E0,2.085000038E0,9.721050262E0
1.669500590E-1,-3.874950171E0,2.053950071E0,9.190950394E0
1.694525210E-1,-3.976050138E0,2.008949995E0,8.806050301E0
1.719549830E-1,-4.042950153E0,1.968000054E0,8.503950119E0
1.744574440E-1,-4.045050144E0,1.963050127E0,8.266950607E0
1.769599050E-1,-3.985050201E0,1.981950045E0,8.104050636E0
1.794623660E-1,-3.882000208E0,1.948950052E0,8.017950058E0
1.819648310E-1,-3.760050297E0,1.915050149E0,7.951050282E0
1.844672920E-1,-3.508050203E0,1.903050065E0,7.845000267E0
1.869697540E-1,-3.372000217E0,1.858050108E0,7.825950146E0
1.894722210E-1,-3.226050138E0,1.822050095E0,7.831050396E0
1.919746830E-1,-3.159000158E0,1.792950034E0,7.777950287E0
1.944771450E-1,-3.154050112E0,1.824000120E0,7.773000240E0
1.969796170E-1,-3.175950050E0,1.828950047E0,7.800000191E0
1.994820790E-1,-3.135000229E0,1.798050046E0,7.843050480E0
2.019844630E-1,-3.159000158E0,1.779000044E0,7.833000183E0
2.044869130E-1,-3.208950043E0,1.792950034E0,7.855050564E0
2.069894510E-1,-3.262050152E0,1.812000036E0,7.920000553E0
2.094918380E-1,-3.268950224E0,1.908000112E0,8.038949966E0
2.119943650E-1,-3.276000261E0,1.956000090E0,8.146950722E0
2.144967520E-1,-3.307050228E0,1.969950080E0,8.236050606E0
2.169992890E-1,-3.325950146E0,2.065950155E0,8.290950775E0
2.195016460E-1,-2.895000219E0,2.334000111E0,8.194950104E0
2.220041830E-1,-3.385950089E0,2.254950047E0,8.298000336E0
2.245065690E-1,-4.066950321E0,2.109000206E0,8.551950455E0
2.270091060E-1,-4.276950359E0,2.119050026E0,8.767050743E0
2.295115690E-1,-4.267950058E0,2.209950209E0,8.755050659E0
2.320140310E-1,-4.174050331E0,2.236050129E0,8.787000656E0
2.345164920E-1,-3.978000164E0,2.278950214E0,8.827050209E0
2.370188770E-1,-3.790950298E0,2.286000013E0,8.775000572E0
2.395214130E-1,-3.829050064E0,2.281949997E0,8.731050491E0
2.420238100E-1,-3.918000221E0,2.269950151E0,8.623950005E0
2.445263460E-1,-4.014000416E0,2.215050220E0,8.566050529E0
2.470288100E-1,-3.954000235E0,2.206950188E0,8.422050476E0
2.495312580E-1,-3.997050285E0,2.193000078E0,8.317049980E0
2.520337190E-1,-4.093050003E0,2.149950027E0,8.239950180E0
2.545361810E-1,-4.134000301E0,2.124000072E0,8.250000000E0
2.570386420E-1,-4.171950340E0,2.097000122E0,8.242950439E0
2.595411030E-1,-4.054950237E0,2.185950041E0,8.101950645E0
2.620435590E-1,-3.997050285E0,2.164050102E0,7.879050255E0
2.645460200E-1,-4.054950237E0,2.095050097E0,7.828050137E0
2.670484810E-1,-4.038000107E0,1.996950150E0,7.813950539E0
2.695508680E-1,-4.062000275E0,1.888950109E0,7.828050137E0
2.720534040E-1,-3.882000208E0,1.827000141E0,7.797000408E0
2.745558680E-1,-3.643050194E0,1.786050081E0,7.741950512E0
2.770583300E-1,-3.529950142E0,1.708950043E0,7.699050426E0
2.795607140E-1,-3.748050213E0,1.587000132E0,7.821000576E0
2.820631740E-1,-4.057050228E0,1.543950081E0,8.011050224E0
2.845656350E-1,-4.111950397E0,1.594050050E0,8.116050720E0
2.870681020E-1,-4.171950340E0,1.642050028E0,8.188050270E0
2.895705630E-1,-4.204950333E0,1.681050062E0,8.190000534E0
2.920730390E-1,-4.083000183E0,1.711950064E0,8.221050262E0
2.945755000E-1,-4.057050228E0,1.774050117E0,8.257050514E0
2.970779620E-1,-4.122000217E0,1.711950064E0,8.335950851E0
2.995804530E-1,-4.071000099E0,1.678050041E0,8.439000130E0
3.020829150E-1,-4.123950005E0,1.690050125E0,8.502000809E0
3.045853770E-1,-4.180950165E0,1.675950050E0,8.563950539E0
3.070878390E-1,-4.131000042E0,1.675950050E0,8.690999985E0
3.095903010E-1,-3.973050117E0,1.702050090E0,8.710050583E0
3.120927620E-1,-3.946950197E0,1.696950078E0,8.650050163E0
3.145952230E-1,-3.967950106E0,1.654050112E0,8.614050865E0
3.170976840E-1,-3.985050201E0,1.633050084E0,8.524950027E0
3.196001450E-1,-3.973050117E0,1.534050107E0,8.414999962E0
3.221026060E-1,-3.853050232E0,1.503000021E0,8.212050438E0
3.246050680E-1,-3.769950151E0,1.465050101E0,8.074950218E0
3.271076060E-1,-3.745950222E0,1.435950041E0,7.972050190E0
3.296099930E-1,-3.724050283E0,1.366950035E0,7.903050423E0
3.321124580E-1,-3.619050264E0,1.348050117E0,7.825950146E0
3.346149190E-1,-3.577950239E0,1.306950092E0,7.833000183E0
3.371173810E-1,-3.505950212E0,1.276050091E0,7.809000492E0
3.396198130E-1,-3.535050154E0,1.281000018E0,7.788000584E0
3.421222650E-1,-3.588000059E0,1.261050105E0,7.783050537E0
3.446248030E-1,-3.736050129E0,1.261050105E0,7.759050369E0
3.471271900E-1,-3.832050085E0,1.297050118E0,7.833000183E0
3.496297260E-1,-3.726000071E0,1.357050061E0,7.837950230E0
3.521321180E-1,-3.766950130E0,1.446000099E0,7.771050453E0
3.546346540E-1,-3.940050125E0,1.465050101E0,7.896000385E0
3.571370410E-1,-4.054950237E0,1.506000042E0,8.113950729E0
3.596395110E-1,-4.312950134E0,1.597050071E0,8.499000549E0
3.621419720E-1,-4.339950085E0,1.708950043E0,8.836950302E0
3.646444340E-1,-4.255949974E0,1.798050046E0,9.001950264E0
3.671468950E-1,-4.288949966E0,1.846050143E0,8.997000694E0
3.696493570E-1,-4.360949993E0,1.851000071E0,9.000000000E0
3.721518190E-1,-4.264950275E0,1.815000057E0,8.959050179E0
3.746542810E-1,-4.228950024E0,1.767000079E0,8.952000618E0
3.771567430E-1,-4.239000320E0,1.716000080E0,9.004050255E0
3.796592050E-1,-4.177050114E0,1.648950100E0,8.968950272E0
3.821616670E-1,-4.057050228E0,1.555950046E0,8.854050636E0
3.846641320E-1,-3.964050293E0,1.351950049E0,8.851050377E0
3.871665930E-1,-3.777000189E0,1.089000106E0,8.857950211E0
3.896690400E-1,-3.733950138E0,7.800000310E-1,8.868000031E0
3.921715010E-1,-3.685950279E0,4.759500325E-1,8.868000031E0
3.946739620E-1,-3.625950098E0,9.495000541E-2,9.000000000E0
3.971764480E-1,-3.682950258E0,-2.869500220E-1,9.409049988E0
3.996789100E-1,-3.801000118E0,-6.180000305E-1,9.487950325E0
4.021813820E-1,-3.898950100E0,-6.679500341E-1,9.214950562E0
4.046838440E-1,-3.906000137E0,-3.709500134E-1,8.995050430E0
4.071863060E-1,-3.916050196E0,4.050000105E-3,8.707050323E0
4.096887810E-1,-3.913050175E0,3.940500319E-1,8.346000671E0
4.121912420E-1,-3.940050125E0,7.870500088E-1,8.092050552E0
4.146937030E-1,-3.910950184E0,1.015050054E0,7.623000145E0
4.171961640E-1,-3.769950151E0,1.141950011E0,7.318050385E0
4.196986260E-1,-3.781950235E0,1.278000116E0,7.402050495E0
4.222010880E-1,-3.741000175E0,1.285050035E0,7.531950474E0
4.247035500E-1,-3.616050243E0,1.113000035E0,7.879050255E0
4.272060120E-1,-3.523050070E0,1.029000044E0,8.212050438E0
4.297084740E-1,-3.535050154E0,9.120000601E-1,8.310000420E0
4.322109350E-1,-3.487050056E0,7.800000310E-1,8.664000511E0
4.347134060E-1,-3.445950270E0,6.460500360E-1,9.012000084E0
4.372158670E-1,-3.432000160E0,5.959500074E-1,9.151050568E0
4.397183280E-1,-3.436950207E0,5.209500194E-1,9.313050270E0
4.422207900E-1,-3.465000153E0,4.830000103E-1,9.333000183E0
4.447232520E-1,-2.866950035E0,3.780000210E-1,9.160050392E0
4.472257180E-1,-2.305950165E0,1.930500120E-1,9.037950516E0
4.497281800E-1,-2.694000244E0,-3.400500119E-1,9.214950562E0
4.522306420E-1,-2.662950039E0,-1.140000105E0,9.586050034E0
4.547331030E-1,-3.348000050E0,-2.730000019E-1,9.838050842E0
4.572355640E-1,-3.733950138E0,8.830500245E-1,9.582000732E0
4.597380250E-1,-4.588950157E0,1.936950088E0,9.739950180E0
4.622404860E-1,-5.065050125E0,2.409000158E0,9.778050423E0
4.647429470E-1,-4.624950409E0,2.346000195E0,9.427950859E0
4.672454090E-1,-3.978000164E0,1.867050052E0,8.787000656E0
4.697478710E-1,-3.337950230E0,1.363950014E0,7.861950397E0
4.722503190E-1,-2.731950045E0,9.280500412E-1,6.934950352E0
4.747527810E-1,-2.545950174E0,8.350500464E-1,6.493950367E0
4.772552430E-1,-2.710950136E0,1.036050081E0,6.411000252E0
4.797576910E-1,-2.365950108E0,1.350000024E0,6.655050278E0
4.822601520E-1,-1.231050014E0,1.338000059E0,6.949950218E0
4.847626030E-1,-2.509500086E-1,9.619500637E-1,6.577950478E0
4.872650640E-1,5.500500202E-1,2.125950098E0,6.616950512E0
4.897675060E-1,2.119500041E-1,2.799000025E0,6.312000275E0
4.922699670E-1,-1.480050087E0,3.136950254E0,5.730000496E0
4.947722000E-1,-2.260950089E0,3.261000156E0,5.041050434E0
4.972748910E-1,-2.941050053E0,3.181950092E0,4.303050041E0
4.997771230E-1,-3.082050085E0,2.856000185E0,3.553050280E0
5.022798140E-1,-3.112950087E0,2.490000010E0,2.758050203E0
5.047822770E-1,-3.139950037E0,2.107050180E0,2.047049999E0
5.072847390E-1,-3.295050144E0,1.716000080E0,1.750050068E0
5.097872000E-1,-3.382050276E0,1.441050053E0,7.540500164E-1
5.122896620E-1,-3.139950037E0,1.414950013E0,-1.078050017E0
5.147921320E-1,-2.649000168E0,1.326000094E0,-1.441950083E0
5.172945940E-1,-2.401950121E0,1.129950047E0,-1.566000104E0
5.197970550E-1,-2.136000156E0,1.033950090E0,-1.627950072E0
5.222995310E-1,-1.717050076E0,7.609500289E-1,-1.867950082E0
5.248019920E-1,-8.209500313E-1,-3.900000155E-1,-2.850000143E0
5.273044530E-1,-9.480000734E-1,-6.420000196E-1,-3.259050131E0
5.298068900E-1,-1.357950091E0,-6.270000339E-1,-2.260950089E0
5.323093520E-1,-1.417950034E0,-9.480000734E-1,-1.525050044E0
5.348118140E-1,-1.695000052E0,-1.081950068E0,-9.630000591E-1
5.373142760E-1,-1.755000114E0,-1.252050042E0,-7.639500499E-1
5.398167480E-1,-1.710000038E0,-1.501050115E0,-6.850500107E-1
5.423192090E-1,-1.741050124E0,-1.683000088E0,-5.820000172E-1
5.448216700E-1,-1.746000051E0,-1.983000040E0,-4.720500112E-1
5.473241310E-1,-1.753050089E0,-2.242050171E0,-1.440000087E-1
5.498265920E-1,-1.818000078E0,-2.448000193E0,3.750000298E-1
5.523288250E-1,-1.909050107E0,-2.733000040E0,1.102950096E0
5.548312840E-1,-2.074050188E0,-3.034050226E0,1.597050071E0
5.573337460E-1,-2.076000214E0,-3.325950146E0,2.004000187E0
5.598362070E-1,-1.858050108E0,-3.718950272E0,2.631000042E0
5.623386690E-1,-1.558950067E0,-4.023000240E0,3.223050117E0
5.648411300E-1,-1.057950020E0,-4.342050076E0,3.787950277E0
5.673435920E-1,-6.079500318E-1,-4.701000214E0,4.468050003E0
5.698460540E-1,-3.600000218E-2,-5.101050377E0,5.010000229E0
5.723485160E-1,4.969500303E-1,-5.500950336E0,5.560050488E0
5.748509780E-1,9.790500402E-1,-5.856000423E0,6.327000141E0
5.773534400E-1,1.306950092E0,-6.150000095E0,7.423950195E0
5.798561210E-1,1.459950089E0,-6.427950382E0,8.377050400E0
5.823583440E-1,1.369050026E0,-6.580950260E0,9.196050644E0
5.848610350E-1,4.810500145E-1,-6.568950176E0,1.011795044E1
5.873632670E-1,-9.240000248E-1,-6.442050457E0,1.102605057E1
5.898659530E-1,-2.325000048E0,-6.282000065E0,1.136400032E1
5.923681850E-1,-3.223050117E0,-6.301050186E0,1.119600010E1
5.948708760E-1,-3.700050116E0,-6.435000420E0,1.067595005E1
5.973731090E-1,-3.697950125E0,-6.598050117E0,1.044405079E1
5.998757990E-1,-3.516000271E0,-6.700950146E0,1.043400097E1
6.023782620E-1,-3.520050049E0,-6.511950493E0,9.948000908E0
6.048804930E-1,-3.564000130E0,-6.078000069E0,9.238950729E0
6.073831840E-1,-3.549000263E0,-5.547000408E0,8.554050446E0
6.098854160E-1,-3.589950085E0,-5.022000313E0,7.987050533E0
6.123881070E-1,-3.681000233E0,-4.620000362E0,7.327950478E0
6.148903440E-1,-3.894000292E0,-4.327950001E0,6.607050419E0
6.173928040E-1,-4.093050003E0,-4.107000351E0,5.998950481E0
6.198952690E-1,-4.251000404E0,-3.964050293E0,5.410050392E0
6.223977310E-1,-4.435050011E0,-3.916050196E0,4.863000393E0
6.249001930E-1,-4.645950317E0,-3.898950100E0,4.441950321E0
6.274026400E-1,-4.881000042E0,-3.967950106E0,4.116000175E0
6.299051020E-1,-5.110950470E0,-4.126049995E0,3.834000111E0
6.324075640E-1,-5.329050064E0,-4.324950218E0,3.598950148E0
6.349100070E-1,-5.535000324E0,-4.567049980E0,3.466950178E0
6.374124690E-1,-5.827050209E0,-4.822950363E0,3.364050150E0
6.399149310E-1,-6.094950199E0,-4.974000454E0,3.295050144E0
6.424173920E-1,-6.373050213E0,-5.199000359E0,3.285000086E0
6.449198530E-1,-6.736950397E0,-5.401050091E0,3.295050144E0
6.474223140E-1,-7.060050488E0,-5.511000156E0,3.352050066E0
6.499247750E-1,-7.398000240E0,-5.635050297E0,3.414000273E0
6.524272370E-1,-7.783950329E0,-5.764950275E0,3.532050133E0
6.549296990E-1,-8.152050018E0,-5.809950352E0,3.580050230E0
6.574321610E-1,-8.530950546E0,-5.941950321E0,3.628050089E0
6.599346080E-1,-8.907000542E0,-6.034950256E0,3.714000225E0
6.624370700E-1,-9.213000298E0,-6.052050114E0,3.847950220E0
6.649395360E-1,-9.514950752E0,-6.066000462E0,3.955950260E0
6.674419970E-1,-9.787950516E0,-6.001950264E0,4.107000351E0
6.699444580E-1,-9.943950653E0,-5.908050060E0,4.223999977E0
6.724469380E-1,-9.991950035E0,-5.877000332E0,4.399050236E0
6.749493990E-1,-9.987000465E0,-5.899050236E0,4.561950207E0
6.774518610E-1,-1.003305054E1,-5.917950153E0,4.746000290E0
6.799543280E-1,-1.004895020E1,-5.968050480E0,4.939950466E0
6.824567900E-1,-1.005600071E1,-6.078000069E0,5.158050060E0
6.849592470E-1,-1.008795071E1,-6.193050385E0,5.362050056E0
6.874617090E-1,-1.018305016E1,-6.282000065E0,5.589000225E0
6.899641710E-1,-1.036095047E1,-6.363000393E0,5.716050148E0
6.924666320E-1,-1.059300041E1,-6.423000336E0,5.842950344E0
6.949690930E-1,-1.079205036E1,-6.454050541E0,5.914950371E0
6.974715540E-1,-1.100505066E1,-6.471000195E0,5.989050388E0
6.999740150E-1,-1.116495037E1,-6.499950409E0,6.022950172E0
7.024764760E-1,-1.129500008E1,-6.562050343E0,5.992050171E0
7.049789380E-1,-1.149300098E1,-6.667950153E0,5.959950447E0
7.074814000E-1,-1.170705032E1,-6.730050087E0,5.842950344E0
7.099838620E-1,-1.203495026E1,-6.904950142E0,5.761950493E0
7.124863380E-1,-1.242495060E1,-7.020000458E0,5.625000477E0
7.149888000E-1,-1.278705025E1,-7.113000393E0,5.517000198E0
7.174912620E-1,-1.307400036E1,-7.240050316E0,5.448000431E0
7.199937230E-1,-1.343805027E1,-7.206000328E0,5.340000153E0
7.224961750E-1,-1.374705029E1,-7.072050571E0,5.215950012E0
7.249986360E-1,-1.399095058E1,-6.919050217E0,5.077050209E0
7.275010970E-1,-1.426905060E1,-6.720000267E0,5.035950184E0
7.300035720E-1,-1.448205090E1,-6.478050232E0,4.990050316E0
7.325060340E-1,-1.470300102E1,-6.214950085E0,4.986000061E0
7.350084210E-1,-1.486305046E1,-5.961000443E0,5.023950100E0
7.375109570E-1,-1.504095078E1,-5.677950382E0,5.095950127E0
7.400134210E-1,-1.517700100E1,-5.470050335E0,5.248950481E0
7.425158820E-1,-1.530600071E1,-5.239950180E0,5.419050217E0
7.450183440E-1,-1.547205067E1,-5.050950050E0,5.697000504E0
7.475208050E-1,-1.569705105E1,-4.828050137E0,5.965050220E0
7.500232670E-1,-1.585005093E1,-4.603050232E0,6.247950077E0
7.525257190E-1,-1.596705055E1,-4.440000057E0,6.568950176E0
7.550281800E-1,-1.604594994E1,-4.332000256E0,6.865950108E0
7.575306410E-1,-1.598895073E1,-4.311000347E0,7.179000378E0
7.600330620E-1,-1.591200066E1,-4.327950001E0,7.512000561E0
7.625355230E-1,-1.577595043E1,-4.342050076E0,7.789950371E0
7.650379750E-1,-1.552005100E1,-4.394999981E0,8.038949966E0
7.675404370E-1,-1.519095039E1,-4.504950047E0,8.193000793E0
7.700429090E-1,-1.490595055E1,-4.629000187E0,8.226000786E0
7.725453710E-1,-1.456605053E1,-4.701000214E0,8.226000786E0
7.750478330E-1,-1.429305077E1,-4.717950344E0,8.077950478E0
7.775502950E-1,-1.402500057E1,-4.749000072E0,7.873950481E0
7.800527560E-1,-1.371405029E1,-4.753950119E0,7.630050182E0
7.825552170E-1,-1.343595028E1,-4.749000072E0,7.366050243E0
7.850576780E-1,-1.322505093E1,-4.716000080E0,6.966000557E0
7.875601390E-1,-1.304295063E1,-4.687050343E0,6.475050449E0
7.900625260E-1,-1.294005108E1,-4.680000305E0,5.986950397E0
7.925649850E-1,-1.292295074E1,-4.653000355E0,5.521950245E0
7.950674470E-1,-1.296405029E1,-4.593000412E0,5.026050091E0
7.975699130E-1,-1.306500053E1,-4.522050381E0,4.534950256E0
8.000723750E-1,-1.316505051E1,-4.516950130E0,4.068000317E0
8.025748360E-1,-1.325595093E1,-4.573950291E0,3.598950148E0
8.050773030E-1,-1.333005047E1,-4.552950382E0,3.205950260E0
8.075797650E-1,-1.338795090E1,-4.576950073E0,2.835000038E0
8.100822270E-1,-1.350300026E1,-4.564949989E0,2.557050228E0
8.125847220E-1,-1.357200050E1,-4.443000317E0,2.392050028E0
8.150871840E-1,-1.366800022E1,-4.348950386E0,2.253000021E0
8.175896610E-1,-1.383795071E1,-4.210050106E0,2.155050039E0
8.200921220E-1,-1.408500099E1,-4.075950146E0,2.076000214E0
8.225945830E-1,-1.433400059E1,-3.895950079E0,2.040000200E0
8.250970630E-1,-1.467405033E1,-3.748050213E0,2.035050154E0
8.275995240E-1,-1.504500103E1,-3.607050180E0,2.107050180E0
8.301019850E-1,-1.545195103E1,-3.465000153E0,2.128050089E0
8.326044370E-1,-1.587900066E1,-3.352950096E0,2.167050123E0
8.351068990E-1,-1.630005074E1,-3.244950056E0,2.293950081E0
8.376094370E-1,-1.674600029E1,-3.099000216E0,2.490000010E0
8.401118230E-1,-1.715805054E1,-3.073050261E0,2.602950096E0
8.426143600E-1,-1.750995064E1,-3.123000145E0,2.749050140E0
8.451167470E-1,-1.787400055E1,-3.111000061E0,2.836950064E0
8.476192830E-1,-1.816095161E1,-3.106050253E0,2.844000101E0
8.501216700E-1,-1.834305000E1,-3.109050035E0,2.916000128E0
8.526241290E-1,-1.838205147E1,-3.172950268E0,2.944950104E0
8.551265910E-1,-1.829804993E1,-3.271050215E0,2.907000065E0
8.576290670E-1,-1.820700073E1,-3.348000050E0,2.856000185E0
8.601315290E-1,-1.806105042E1,-3.384000063E0,2.763000250E0
8.626339850E-1,-1.787895012E1,-3.361950159E0,2.629050016E0
8.651364470E-1,-1.762500000E1,-3.379050255E0,2.509050131E0
8.676388990E-1,-1.728195000E1,-3.322050095E0,2.380050182E0
8.701413610E-1,-1.682999992E1,-3.348000050E0,2.286000013E0
8.726438230E-1,-1.631204987E1,-3.406050205E0,2.140050173E0
8.751462850E-1,-1.584495068E1,-3.432000160E0,2.124000072E0
8.776487370E-1,-1.534695053E1,-3.396000147E0,2.148000002E0
8.801511980E-1,-1.482000065E1,-3.384000063E0,2.203050137E0
8.826536590E-1,-1.431195068E1,-3.361950159E0,2.293950081E0
8.851561200E-1,-1.379700089E1,-3.384000063E0,2.409000158E0
8.876585810E-1,-1.324695110E1,-3.394050121E0,2.607000113E0
8.901610420E-1,-1.278705025E1,-3.391050100E0,2.752950191E0
8.926635040E-1,-1.240395069E1,-3.433950186E0,3.003000259E0
8.951659660E-1,-1.205205059E1,-3.508950233E0,3.295050144E0
8.976684280E-1,-1.164405060E1,-3.619050264E0,3.525000095E0
9.001708710E-1,-1.141905022E1,-3.682950258E0,3.787950277E0
9.026733330E-1,-1.119900036E1,-3.712050200E0,4.083000183E0
9.051757950E-1,-1.097400093E1,-3.718950272E0,4.485000134E0
9.076782750E-1,-1.062195015E1,-3.733950138E0,5.500950336E0
9.101807360E-1,-1.016400051E1,-3.837000132E0,6.067950249E0
9.126831970E-1,-9.786000252E0,-3.885000229E0,6.508950233E0
9.151856490E-1,-9.714000702E0,-3.906000137E0,6.514050484E0
9.176881100E-1,-9.769050598E0,-3.922950268E0,6.528000355E0
9.201905960E-1,-9.973050117E0,-3.882000208E0,6.363000393E0
9.226930580E-1,-9.991950035E0,-3.789000273E0,6.552000523E0
9.251955150E-1,-1.009995079E1,-3.832050085E0,6.748050213E0
9.276979770E-1,-1.029405022E1,-3.861000299E0,6.868050098E0
9.302004390E-1,-1.051905060E1,-3.838950157E0,6.961950302E0
9.327029010E-1,-1.070295048E1,-3.786000252E0,7.063950539E0
9.352053620E-1,-1.098105049E1,-3.712050200E0,7.078950405E0
9.377078230E-1,-1.126605034E1,-3.658950090E0,7.111950397E0
9.402102840E-1,-1.144305038E1,-3.601950169E0,7.210950375E0
9.427127450E-1,-1.161300087E1,-3.525000095E0,7.306050301E0
9.452152060E-1,-1.185795021E1,-3.496950150E0,7.381050587E0
9.477176680E-1,-1.211895084E1,-3.492000103E0,7.381050587E0
9.502198870E-1,-1.231500053E1,-3.501000166E0,7.333050251E0
9.527223460E-1,-1.245105076E1,-3.451050282E0,7.218000412E0
9.552248030E-1,-1.264500046E1,-3.384000063E0,7.138950348E0
9.577274950E-1,-1.286805058E1,-3.267000198E0,7.074000359E0
9.602297230E-1,-1.304805088E1,-3.148950100E0,7.078950405E0
9.627324130E-1,-1.315995026E1,-3.151950121E0,7.150950432E0
9.652346460E-1,-1.311495018E1,-3.244950056E0,7.093050480E0
9.677373360E-1,-1.301400089E1,-3.355050087E0,6.870000362E0
9.702395690E-1,-1.286805058E1,-3.417000055E0,6.751050472E0
9.727420290E-1,-1.284705067E1,-3.322050095E0,6.933000565E0
9.752447210E-1,-1.284900093E1,-3.180000067E0,7.246950150E0
9.777469540E-1,-1.261695099E1,-3.067950249E0,7.630050182E0
9.802496440E-1,-1.245600033E1,-2.929050207E0,8.140049934E0
9.827518770E-1,-1.242300034E1,-2.749050140E0,8.170949936E0
9.852545330E-1,-1.232895088E1,-2.590950012E0,8.334000587E0
9.877567660E-1,-1.220505047E1,-2.515050173E0,8.611950874E0
9.902594560E-1,-1.214700031E1,-2.445000172E0,8.656949997E0
9.927616840E-1,-1.225305080E1,-2.380050182E0,8.403000832E0
9.952643740E-1,-1.231500053E1,-2.359050035E0,8.245050430E0
9.977668380E-1,-1.220205021E1,-2.385000229E0,8.299950600E0
1.000269036E0,-1.204200077E1,-2.461950064E0,8.446050644E0
1.002771495E0,-1.179300022E1,-2.562000036E0,8.347949982E0
1.005273962E0,-1.144095039E1,-2.653050184E0,8.200050354E0
1.007776423E0,-1.104795074E1,-2.638950109E0,8.080050468E0
1.010278885E0,-1.044900036E1,-2.557950020E0,8.022000313E0
1.012781346E0,-9.817050934E0,-2.521950006E0,7.942950249E0
1.015283808E0,-9.184950829E0,-2.482950211E0,7.699050426E0
1.017786269E0,-8.706000328E0,-2.392050028E0,7.402050495E0
1.020288731E0,-8.749050140E0,-2.371050119E0,6.862950325E0
1.022791193E0,-8.931000710E0,-2.488050222E0,6.111000061E0
1.025293655E0,-8.631000519E0,-2.590950012E0,5.674950123E0
1.027796117E0,-8.227050781E0,-2.697000027E0,5.292000294E0
1.030298564E0,-7.879050255E0,-2.886000156E0,4.818000317E0
1.032801026E0,-7.872000217E0,-3.013050079E0,4.248000145E0
1.035303487E0,-8.614950180E0,-2.433000088E0,4.223999977E0
1.037805948E0,-7.768950462E0,-3.268950224E0,3.988950253E0
1.040308409E0,-7.879050255E0,-3.528000116E0,3.424050093E0
1.042810860E0,-7.372050285E0,-4.146000385E0,3.015000105E0
1.045313321E0,-6.691050529E0,-4.792050362E0,2.257950068E0
1.047815783E0,-7.254000187E0,-4.378050327E0,1.780950069E0
1.050318245E0,-7.554000378E0,-4.171950340E0,1.726050138E0
1.052820707E0,-7.197000504E0,-4.680000305E0,9.960000515E-1
1.055323169E0,-7.420050144E0,-4.810950279E0,3.060000241E-1
1.057825631E0,-7.642050266E0,-4.740000248E0,-2.595000155E-2
1.060328093E0,-7.783950329E0,-4.713000298E0,-2.779500186E-1
1.062830554E0,-7.920000553E0,-4.744050026E0,-4.789500237E-1
1.065333015E0,-7.954050541E0,-4.821000099E0,-5.629500151E-1
1.067835476E0,-7.788000584E0,-4.977000237E0,-5.290500522E-1
1.070337937E0,-7.542000294E0,-5.119950294E0,-5.149500370E-1
1.072840398E0,-7.477050304E0,-5.214000225E0,-5.320500135E-1
1.075342875E0,-7.462950230E0,-5.299950123E0,-4.260000288E-1
1.077845337E0,-7.387950420E0,-5.326050282E0,-3.850500286E-1
1.080347771E0,-7.321050167E0,-5.391000271E0,-3.709500134E-1
1.082850233E0,-7.257000446E0,-5.443950176E0,-3.469500244E-1
1.085352695E0,-7.194000244E0,-5.452950478E0,-2.749500275E-1
1.087855180E0,-7.198950291E0,-5.503950119E0,-2.350500077E-1
1.090357641E0,-7.206000328E0,-5.560950279E0,-1.909500062E-1
1.092860088E0,-7.221000195E0,-5.652000427E0,-1.650000066E-1
1.095362549E0,-7.345050335E0,-5.748000145E0,-1.939500123E-1
1.097865010E0,-7.471950531E0,-5.793000221E0,-3.379500210E-1
1.100367471E0,-7.441050529E0,-5.803050041E0,-2.700000107E-1
1.102869858E0,-7.309050560E0,-5.812950134E0,-1.650000066E-1
1.105372394E0,-7.149000168E0,-5.860050201E0,-7.200000435E-2
1.107874781E0,-6.976050377E0,-5.944050312E0,-4.500000179E-2
1.110377317E0,-6.727050304E0,-6.054000378E0,1.950000064E-3
1.112879781E0,-6.487950325E0,-6.153000355E0,8.100000024E-2
1.115382243E0,-6.223950386E0,-6.189000130E0,1.840500087E-1
1.117884704E0,-6.013950348E0,-6.217050076E0,2.530499995E-1
1.120387166E0,-5.914950371E0,-6.250950336E0,3.420000076E-1
1.122889646E0,-5.725950241E0,-6.342000484E0,2.700000107E-1
1.125392107E0,-5.491950035E0,-6.459000111E0,2.340000123E-1
1.127894568E0,-5.452950478E0,-6.571950436E0,2.119500041E-1
1.130397038E0,-5.527050495E0,-6.670050144E0,1.429500133E-1
1.132899499E0,-5.451000214E0,-6.826050282E0,9.000000358E-2
1.135401980E0,-5.416950226E0,-6.889950275E0,4.905000329E-2
1.137904442E0,-5.535000324E0,-6.912000179E0,-1.695000008E-2
1.140406904E0,-6.687000275E0,-6.058950424E0,3.660000265E-1
1.142909290E0,-6.763050556E0,-6.205050468E0,8.760000467E-1
1.145411749E0,-6.256050110E0,-6.895050526E0,7.800000310E-1
1.147914211E0,-6.196050167E0,-7.384050369E0,5.400000215E-1
1.150416672E0,-6.415950298E0,-7.537050247E0,1.050000042E-1
1.152919134E0,-6.532950401E0,-7.459950447E0,-4.090500176E-1
1.155421595E0,-6.816000462E0,-7.210950375E0,-9.750000238E-1
1.157924057E0,-7.330950260E0,-6.766050339E0,-1.561050057E0
1.160426519E0,-7.764000416E0,-6.205050468E0,-1.945050120E0
1.162928967E0,-8.131050110E0,-5.724000454E0,-2.128950119E0
1.165431429E0,-8.449049950E0,-5.404950142E0,-2.031000137E0
1.167933891E0,-8.513999939E0,-5.299950123E0,-1.702950120E0
1.170436372E0,-8.518950462E0,-5.298000336E0,-1.303050041E0
1.172938833E0,-8.566950798E0,-5.326050282E0,-7.470000386E-1
1.175441294E0,-8.806050301E0,-5.362050056E0,-3.400500119E-1
1.177943755E0,-8.871000290E0,-5.278050423E0,7.304999977E-2
1.180446216E0,-8.947950363E0,-5.263950348E0,5.190000534E-1
1.182948677E0,-8.967000008E0,-5.235000134E0,8.020500541E-1
1.185451139E0,-8.955000877E0,-5.185050011E0,9.760500193E-1
1.187953601E0,-8.892000198E0,-5.197050095E0,1.004999995E0
1.190456063E0,-8.727000237E0,-5.187000275E0,9.670500755E-1
1.192958525E0,-8.538000107E0,-5.134950161E0,8.830500245E-1
1.195460987E0,-8.248050690E0,-4.984050274E0,7.780500650E-1
1.197963449E0,-7.999050617E0,-4.858950138E0,5.860500336E-1
1.200465891E0,-7.779000282E0,-4.711050034E0,4.849500358E-1
1.202968352E0,-7.477050304E0,-4.609950066E0,2.890500128E-1
1.205470813E0,-7.194000244E0,-4.555050373E0,1.429500133E-1
1.207973279E0,-6.960000515E0,-4.495050430E0,1.395000052E-2
1.210475740E0,-6.699000359E0,-4.383000374E0,-4.995000362E-2
1.212978202E0,-6.484950542E0,-4.335000038E0,-1.319999993E-1
1.215480697E0,-6.319950104E0,-4.284000397E0,-1.270500124E-1
1.217983159E0,-6.244050503E0,-4.231950283E0,-1.270500124E-1
1.220485621E0,-6.097950459E0,-4.122000217E0,-1.270500124E-1
1.222988083E0,-5.989950180E0,-4.006950378E0,-1.669500023E-1
1.225490545E0,-5.998950481E0,-3.882000208E0,-1.990500093E-1
1.227993006E0,-6.069000244E0,-3.741000175E0,-2.110500038E-1
1.230495467E0,-6.112050056E0,-3.565950155E0,-2.080500126E-1
1.232997928E0,-6.270000458E0,-3.445950270E0,-1.770000011E-1
1.235500389E0,-6.366000175E0,-3.325950146E0,-1.579500139E-1
1.238002850E0,-6.438000202E0,-3.156000137E0,-6.900000572E-2
1.240505303E0,-6.579000473E0,-2.965050220E0,-7.605000585E-2
1.243007765E0,-6.619950294E0,-2.782950163E0,-4.095000029E-2
1.245509997E0,-6.664950371E0,-2.590950012E0,2.080500126E-1
1.248012687E0,-6.850050449E0,-2.421000004E0,4.330500066E-1
1.250515151E0,-6.660000324E0,-2.340000153E0,4.050000105E-3
1.253017627E0,-6.318000317E0,-2.316000223E0,-6.300000548E-1
1.255520088E0,-6.450000286E0,-2.136000156E0,-9.390000701E-1
1.258022536E0,-7.039050102E0,-1.992000103E0,-1.149000049E0
1.260524997E0,-7.465050220E0,-1.837050080E0,-1.168950081E0
1.263027459E0,-7.672950268E0,-1.803000093E0,-8.860500455E-1
1.265529920E0,-7.912950516E0,-1.810050130E0,-5.389500260E-1
1.268032381E0,-7.912950516E0,-1.755000114E0,-4.669500291E-1
1.270534842E0,-8.016000748E0,-1.675950050E0,-5.430000424E-1
1.273037303E0,-8.416049957E0,-1.552050114E0,-4.620000124E-1
1.275539536E0,-8.638950348E0,-1.453950047E0,-3.349500299E-1
1.278042226E0,-8.689050674E0,-1.492050052E0,6.105000153E-2
1.280544468E0,-8.818050385E0,-1.425000072E0,5.980500579E-1
1.283046927E0,-8.988000870E0,-1.236000061E0,1.165950060E0
1.285549389E0,-9.127050400E0,-1.044000030E0,1.666050076E0
1.288051850E0,-9.297000885E0,-8.050500154E-1,2.092050076E0
1.290554312E0,-9.343050003E0,-5.790000558E-1,2.337000132E0
1.293056764E0,-9.343050003E0,-3.259500265E-1,2.385000229E0
1.295559225E0,-9.307050705E0,-3.795000166E-2,2.269950151E0
1.298061687E0,-9.312000275E0,1.720500141E-1,1.879050136E0
1.300564149E0,-9.249000549E0,3.370500207E-1,1.429050088E0
1.303066611E0,-9.052950859E0,4.519500136E-1,1.012050033E0
1.305569073E0,-9.076950073E0,4.879500270E-1,6.820500493E-1
1.308071535E0,-8.940000534E0,4.830000103E-1,6.720000505E-1
1.310573996E0,-8.857050896E0,4.399500191E-1,6.940500140E-1
1.313076457E0,-8.822999954E0,4.420500100E-1,8.020500541E-1
1.315578918E0,-8.919000626E0,2.719500065E-1,7.630500197E-1
1.318081379E0,-9.046050072E0,1.050000042E-1,7.849500179E-1
1.320583841E0,-9.133950233E0,-1.290000081E-1,7.030500174E-1
1.323086299E0,-9.127050400E0,-2.560500205E-1,6.030000448E-1
1.325588761E0,-9.175050735E0,-3.090000153E-1,5.359500051E-1
1.328091223E0,-9.139050484E0,-3.160500228E-1,3.490500152E-1
1.330593685E0,-9.003000259E0,-3.589500189E-1,5.700000376E-2
1.333096165E0,-8.854050636E0,-4.669500291E-1,-1.960500032E-1
1.335598626E0,-8.775000572E0,-4.860000312E-1,-3.490500152E-1
1.338101106E0,-8.872950554E0,-4.930500090E-1,-7.300500274E-1
1.340603567E0,-8.959950447E0,-3.970500231E-1,-1.153950095E0
1.343106028E0,-9.043050766E0,-1.770000011E-1,-1.482000113E0
1.345608490E0,-9.232950211E0,1.500000060E-1,-1.255050063E0
1.348110952E0,-9.439050674E0,2.989500165E-1,-1.482000113E0
1.350613414E0,-9.558000565E0,6.600000262E-1,-1.887000084E0
1.353115876E0,-9.550950050E0,1.042950034E0,-1.501050115E0
1.355618338E0,-9.724050522E0,1.120050073E0,-3.589500189E-1
1.358120800E0,-9.949050903E0,1.087050080E0,4.830000103E-1
1.360623261E0,-1.019805050E1,1.168050051E0,1.222950101E0
1.363125708E0,-1.031505013E1,1.237050056E0,1.648950100E0
1.365628093E0,-1.003995037E1,1.254000068E0,1.885950089E0
1.368130625E0,-1.012395000E1,1.315950036E0,2.526000023E0
1.370633088E0,-1.006800079E1,1.288050056E0,2.740950108E0
1.373135559E0,-1.018800068E1,1.213050008E0,2.715000153E0
1.375638020E0,-1.042800045E1,1.150950074E0,2.670000076E0
1.378140482E0,-1.050195026E1,1.003050089E0,2.401050091E0
1.380642959E0,-1.071705055E1,8.400000334E-1,1.999050140E0
1.383145420E0,-1.096395016E1,8.160000443E-1,1.570050120E0
1.385647881E0,-1.117995071E1,9.090000391E-1,1.129950047E0
1.388150342E0,-1.163205051E1,9.379500151E-1,7.420500517E-1
1.390652803E0,-1.212795067E1,9.310500622E-1,3.630000055E-1
1.393155264E0,-1.249500084E1,9.190500379E-1,1.000500023E-1
1.395657726E0,-1.296405029E1,9.330000281E-1,-2.100000158E-2
1.398160188E0,-1.358700085E1,9.499500394E-1,1.690500081E-1
1.400662650E0,-1.411095047E1,8.929500580E-1,4.999500215E-1
1.403165112E0,-1.457595062E1,8.970000148E-1,8.809500337E-1
1.405667545E0,-1.508400059E1,9.000000358E-1,1.384050012E0
1.408169930E0,-1.548405075E1,9.480000734E-1,2.029950142E0
1.410672384E0,-1.590000057E1,9.930000305E-1,2.866050243E0
1.413174846E0,-1.619700050E1,1.168050051E0,3.702000141E0
1.415677307E0,-1.658100128E1,1.242000103E0,4.249950409E0
1.418179779E0,-1.683705139E1,1.336050034E0,4.777050018E0
1.420682240E0,-1.702605057E1,1.395000100E0,5.208000183E0
1.423184702E0,-1.734000015E1,1.294950008E0,5.517000198E0
1.425687164E0,-1.738995171E1,1.276050091E0,5.800050259E0
1.428189626E0,-1.739505005E1,1.269000053E0,5.778000355E0
1.430692088E0,-1.728900146E1,1.297050118E0,5.659050465E0
1.433194550E0,-1.702095032E1,1.273050070E0,4.911000252E0
1.435697012E0,-1.650900078E1,1.324050069E0,4.192950249E0
1.438199473E0,-1.622805023E1,1.285050035E0,3.928950071E0
1.440701929E0,-1.613504982E1,1.099050045E0,3.951000214E0
1.443204390E0,-1.629795074E1,8.779500127E-1,4.140000343E0
1.445706851E0,-1.618800163E1,5.119500160E-1,4.260000229E0
1.448209312E0,-1.619295120E1,1.930500120E-1,4.393949986E0
1.450711794E0,-1.618500137E1,2.295000106E-2,4.461000443E0
1.453214256E0,-1.602195168E1,-2.110500038E-1,4.333950043E0
1.455716718E0,-1.583805084E1,-4.500000179E-1,4.324950218E0
1.458219180E0,-1.576905060E1,-7.230000496E-1,4.246050358E0
1.460721642E0,-1.567500114E1,-1.249950051E0,3.811950207E0
1.463224104E0,-1.552695084E1,-1.446000099E0,3.004950047E0
1.465726565E0,-1.557195091E1,-1.753050089E0,1.726050138E0
1.468229026E0,-1.592700100E1,-2.042999983E0,2.890500128E-1
1.470731487E0,-1.579005051E1,-2.287050009E0,-4.189500213E-1
1.473233962E0,-1.551495075E1,-2.974050045E0,-1.261950016E0
1.475736423E0,-1.539300060E1,-3.481950283E0,-2.074050188E0
1.478238885E0,-1.492800045E1,-3.834000111E0,-1.369950056E0
1.480741342E0,-1.467405033E1,-3.946950197E0,-1.597050071E0
1.483243804E0,-1.444695091E1,-3.532050133E0,-7.300500274E-1
1.485746031E0,-1.437495041E1,-2.725050211E0,4.005000368E-2
1.488248721E0,-1.421895027E1,-2.634000063E0,-1.027050018E0
1.490751190E0,-1.389600086E1,-2.943000078E0,-1.834050059E0
1.493253651E0,-1.362495041E1,-2.658000231E0,-1.927950144E0
1.495756113E0,-1.369005108E1,-2.413950205E0,-3.693000078E0
1.498258574E0,-1.280100060E1,-3.925050259E0,-6.556950092E0
1.500761036E0,-1.213800049E1,-4.492950439E0,-7.936950207E0
1.503263497E0,-1.180005074E1,-4.085999966E0,-8.220000267E0
1.505765958E0,-1.195095062E1,-4.021049976E0,-7.882050514E0
1.508268419E0,-1.218105030E1,-4.440000057E0,-7.900950432E0
1.510770880E0,-1.181205082E1,-5.071950436E0,-7.150950432E0
1.513273342E0,-1.207995033E1,-5.551050186E0,-6.580950260E0
1.515775799E0,-1.286595058E1,-5.899050236E0,-6.258000374E0
1.518278261E0,-1.314795017E1,-6.130950451E0,-6.933000565E0
1.520780492E0,-1.196295071E1,-6.148050308E0,-8.703000069E0
1.523282914E0,-9.391050339E0,-6.826050282E0,-1.054305077E1
1.525785375E0,-7.393050194E0,-7.506000519E0,-1.219995022E1
1.528287861E0,-5.974950314E0,-9.019050598E0,-1.405395031E1
1.530790323E0,-4.531050205E0,-1.001100063E1,-1.629104996E1
1.533292793E0,-2.701050043E0,-8.956950188E0,-1.552005100E1
1.535795255E0,-2.512050152E0,-7.354950428E0,-1.134495068E1
1.538297716E0,-3.313950062E0,-6.832950115E0,-5.025000095E0
1.540800178E0,-3.685950279E0,-7.429050446E0,-1.978050113E0
1.543302640E0,-3.408000231E0,-7.498950481E0,-1.249950051E0
1.545805102E0,-5.365050316E0,-7.036050320E0,1.395000052E-2
1.548307564E0,-6.735000134E0,-6.706050396E0,1.860000134E0
1.550810026E0,-6.921000481E0,-6.507000446E0,3.819000244E0
1.553312487E0,-6.406050205E0,-5.973000050E0,4.957050323E0
1.555814944E0,-5.106000423E0,-4.885950089E0,5.536050320E0
1.558317405E0,-4.261050224E0,-3.873000145E0,5.685000420E0
1.560819866E0,-3.592050076E0,-3.172950268E0,5.055000305E0
1.563322328E0,-3.118050098E0,-2.704050064E0,4.054049969E0
1.565824790E0,-2.577000141E0,-2.482950211E0,2.967000246E0
1.568327237E0,-2.134050131E0,-2.268000126E0,2.167050123E0
1.570829699E0,-1.930050135E0,-2.052000046E0,1.960950136E0
1.573332161E0,-1.765050054E0,-2.208000183E0,2.071050167E0
1.575834627E0,-1.714950085E0,-2.329950094E0,2.629050016E0
1.578337088E0,-1.546950102E0,-2.184000015E0,3.205950260E0
1.580839568E0,-1.702950120E0,-2.218050003E0,3.244050264E0
1.583342029E0,-1.935000062E0,-2.500050068E0,3.073950052E0
1.585844491E0,-2.332950115E0,-2.790000200E0,3.309000254E0
1.588346953E0,-2.979000092E0,-3.208950043E0,4.249950409E0
1.590849415E0,-3.468000174E0,-3.445950270E0,4.590000153E0
1.593351877E0,-3.670950174E0,-3.517950058E0,4.555050373E0
1.595854339E0,-3.937050104E0,-4.110000134E0,4.732050419E0
1.598356800E0,-3.961050272E0,-4.615050316E0,4.272000313E0
1.600859185E0,-3.822000265E0,-4.900050163E0,2.686050177E0
1.603361735E0,-3.292950153E0,-4.977000237E0,5.449500084E-1
1.605864199E0,-2.722950220E0,-5.206950188E0,-1.578000069E0
1.608366651E0,-2.160000086E0,-5.671050072E0,-3.421950102E0
1.610869113E0,-1.693050027E0,-6.100050449E0,-4.965000153E0
1.613371498E0,-1.267050028E0,-6.912000179E0,-5.215950012E0
1.615874043E0,-8.140500188E-1,-7.290000439E0,-4.720050335E0
1.618376430E0,-2.539499998E-1,-7.053000450E0,-5.086950302E0
1.620878951E0,5.190000534E-1,-6.888000488E0,-5.769000053E0
1.623381338E0,1.270950079E0,-6.720000267E0,-6.318000317E0
1.625883874E0,1.443000078E0,-6.780000210E0,-6.378000259E0
1.628386338E0,8.299500346E-1,-7.093950272E0,-6.100050449E0
1.630888799E0,-1.950000064E-3,-7.137000561E0,-6.771000385E0
1.633391261E0,-5.170500278E-1,-7.008000374E0,-8.449049950E0
1.635893722E0,2.100000083E-1,-7.374000549E0,-1.059300041E1
1.638396184E0,1.554000020E0,-7.930050373E0,-1.111800098E1
1.640898569E0,2.647950172E0,-8.617050171E0,-1.081605053E1
1.643401028E0,2.080049992E0,-9.289950371E0,-9.376049995E0
1.645903490E0,2.296050072E0,-9.360000610E0,-7.561050415E0
1.648405951E0,4.162050247E0,-8.337000847E0,-5.182950020E0
1.650908427E0,7.093050480E0,-6.993000507E0,-2.833050251E0
1.653410888E0,1.066905022E1,-5.398050308E0,5.070000291E-1
1.655913351E0,1.309005070E1,-4.347000122E0,2.671950102E0
1.658415813E0,1.334400082E1,-4.177050114E0,2.791950226E0
1.660918275E0,1.237695026E1,-4.018949986E0,3.028950214E0
1.663420737E0,1.068105030E1,-3.151950121E0,2.722050190E0
1.665923199E0,6.210000515E0,-5.725950241E0,2.194950104E0
1.668425661E0,3.871950150E0,-8.109000206E0,1.804950118E0
1.670928122E0,2.590950012E0,-8.566950798E0,2.635950089E0
1.673430583E0,1.030950069E0,-8.619000435E0,3.834000111E0
1.675933044E0,-6.270000339E-1,-8.904000282E0,3.807000160E0
1.678435500E0,-1.333950043E0,-9.285000801E0,4.642950058E0
1.680937961E0,-3.313950062E0,-9.874050140E0,4.806000233E0
1.683440437E0,-4.500000000E0,-1.029405022E1,4.351050377E0
1.685942899E0,-5.392950058E0,-1.036995029E1,3.727950096E0
1.688445385E0,-6.301050186E0,-1.081095028E1,3.601050138E0
1.690947847E0,-6.826050282E0,-1.152000046E1,2.701050043E0
1.693450280E0,-6.691050529E0,-1.278195095E1,2.205000162E0
1.695952742E0,-7.012050152E0,-1.392000103E1,2.635950089E0
1.698455203E0,-7.341000557E0,-1.453800106E1,3.211050034E0
1.700957664E0,-7.891050339E0,-1.457100105E1,3.184950113E0
1.703460125E0,-8.133000374E0,-1.435800076E1,1.804950118E0
1.705962586E0,-9.460050583E0,-1.476300049E1,1.020000055E-1
1.708465047E0,-1.137600040E1,-1.459995079E1,-1.450950027E0
1.710967509E0,-1.300200081E1,-1.419300079E1,-2.098050117E0
1.713469971E0,-1.452600098E1,-1.372800064E1,-2.316000223E0
1.715972184E0,-1.583595085E1,-1.312500095E1,-2.067000151E0
1.718474874E0,-1.669995117E1,-1.232700062E1,-1.786950111E0
1.720977102E0,-1.762500000E1,-1.188405037E1,-1.839000106E0
1.723479793E0,-1.868100166E1,-1.188900089E1,-1.834050059E0
1.725982256E0,-1.926300049E1,-1.175505066E1,-1.734000087E0
1.728484497E0,-1.933995056E1,-1.143105030E1,-1.738950133E0
1.730987187E0,-1.994595146E1,-1.123695087E1,-1.699950099E0
1.733489420E0,-2.044095039E1,-1.105995083E1,-2.008949995E0
1.735992110E0,-2.084595108E1,-1.086600018E1,-2.637000084E0
1.738494343E0,-2.097795105E1,-1.054695034E1,-3.001050234E0
1.740997033E0,-2.086800194E1,-1.022700024E1,-3.064950228E0
1.743499497E0,-2.096595192E1,-9.870000839E0,-3.135000229E0
1.746001958E0,-2.102295113E1,-9.345000267E0,-2.979000092E0
1.748504420E0,-2.117205048E1,-8.818050385E0,-2.758950233E0
1.751006891E0,-2.144505119E1,-8.208000183E0,-2.673000097E0
1.753509121E0,-2.138505173E1,-7.459950447E0,-2.407050133E0
1.756011557E0,-2.119800186E1,-6.931050301E0,-2.224950075E0
1.758514018E0,-2.071005058E1,-6.469050407E0,-2.086050034E0
1.761016461E0,-2.016795158E1,-6.234000206E0,-2.184000015E0
1.763518922E0,-2.009895134E1,-6.100050449E0,-2.428050041E0
1.766021408E0,-1.980900002E1,-6.033000469E0,-2.541000128E0
1.768523870E0,-1.853700066E1,-5.983050346E0,-2.500050068E0
1.771026332E0,-1.746405029E1,-5.863050461E0,-2.119050026E0
1.773528794E0,-1.669500160E1,-5.760000229E0,-1.600050092E0
1.776031256E0,-1.608495140E1,-5.899050236E0,-1.285950065E0
1.778533718E0,-1.543305111E1,-6.057000160E0,-9.910500646E-1
1.781036179E0,-1.501695061E1,-6.157050133E0,-4.170000255E-1
1.783538640E0,-1.493505096E1,-6.046950340E0,3.540000021E-1
1.786041101E0,-1.487505054E1,-5.773950100E0,1.362000108E0
1.788543548E0,-1.446300030E1,-5.487000465E0,2.329950094E0
1.791046009E0,-1.378305054E1,-5.146950245E0,3.025950193E0
1.793548471E0,-1.300500107E1,-4.941000462E0,3.412050247E0
1.796050913E0,-1.231695080E1,-4.735050201E0,3.556050062E0
1.798553361E0,-1.156095028E1,-4.720050335E0,3.961050272E0
1.801055823E0,-1.084005070E1,-4.657950401E0,4.285950184E0
1.803558285E0,-1.028595066E1,-4.668000221E0,4.420050144E0
1.806060713E0,-9.934050560E0,-4.687050343E0,4.485000134E0
1.808563174E0,-9.661050797E0,-4.656000137E0,4.522950172E0
1.811065635E0,-9.385950089E0,-4.537950039E0,4.522950172E0
1.813568096E0,-9.513000488E0,-4.251000404E0,4.411050320E0
1.816070557E0,-9.819000244E0,-3.988050222E0,4.236000061E0
1.818573018E0,-1.015500069E1,-3.733950138E0,4.051949978E0
1.821075480E0,-1.056195068E1,-3.487050056E0,3.855000257E0
1.823577942E0,-1.081605053E1,-3.250050068E0,3.628050089E0
1.826080404E0,-1.108200073E1,-3.034050226E0,3.393000126E0
1.828582866E0,-1.118700027E1,-2.929050207E0,3.216000080E0
1.831085328E0,-1.124205017E1,-2.847000122E0,2.986050129E0
1.833587790E0,-1.135905075E1,-2.902950048E0,2.764950037E0
1.836090160E0,-1.153905010E1,-2.827950239E0,2.547000170E0
1.838592620E0,-1.176405048E1,-2.737050056E0,2.389050007E0
1.841095071E0,-1.209495068E1,-2.812050104E0,2.095050097E0
1.843597533E0,-1.253295040E1,-2.974050045E0,1.810050130E0
1.846100071E0,-1.319895077E1,-3.070050240E0,1.675950050E0
1.848602458E0,-1.371795082E1,-3.142050266E0,1.591950059E0
1.851104995E0,-1.420905113E1,-3.373950243E0,1.546050072E0
1.853607381E0,-1.489005089E1,-3.613950253E0,1.588950038E0
1.856109918E0,-1.588605118E1,-3.919950247E0,1.438950062E0
1.858612304E0,-1.667895126E1,-4.087950230E0,1.209000111E0
1.861114841E0,-1.748295021E1,-4.098000050E0,1.036050081E0
1.863617304E0,-1.809900093E1,-4.225049973E0,9.040500522E-1
1.866119766E0,-1.885800171E1,-4.312950134E0,6.600000262E-1
1.868622227E0,-1.962000084E1,-4.504950047E0,3.319500089E-1
1.871124708E0,-2.037195015E1,-4.852050304E0,-4.410000145E-1
1.873627093E0,-2.097495079E1,-5.278050423E0,-1.149000049E0
1.876129552E0,-2.155695152E1,-5.713950157E0,-2.152950048E0
1.878632014E0,-2.252700043E1,-6.001950264E0,-3.075000048E0
1.881134485E0,-2.264505196E1,-6.246000290E0,-3.904050112E0
1.883636947E0,-2.295405197E1,-6.612000465E0,-4.507050037E0
1.886139408E0,-2.311905098E1,-7.330950260E0,-4.703999996E0
1.888641870E0,-2.277600098E1,-7.894050598E0,-4.834950447E0
1.891144332E0,-2.298000145E1,-8.374950409E0,-5.086950302E0
1.893646794E0,-2.209905052E1,-8.908950806E0,-5.187000275E0
1.896149256E0,-1.947600174E1,-9.484050751E0,-5.317050457E0
1.898651718E0,-1.746900177E1,-9.657000542E0,-4.914000034E0
1.901154180E0,-1.570605087E1,-9.666000366E0,-4.629000187E0
1.903656641E0,-1.347705078E1,-9.654000282E0,-4.459050179E0
1.906159083E0,-1.105305099E1,-9.556050301E0,-4.099950314E0
1.908661544E0,-8.488050461E0,-9.463050842E0,-3.898950100E0
1.911164005E0,-6.106950283E0,-9.319050789E0,-3.967950106E0
1.913666451E0,-4.440000057E0,-9.144000053E0,-4.189050198E0
1.916168913E0,-3.343050241E0,-8.962050438E0,-4.126049995E0
1.918671404E0,-2.433000088E0,-8.835000038E0,-4.087950230E0
1.921173866E0,-1.642950058E0,-8.545050621E0,-3.901050091E0
1.923676328E0,-3.330000043E-1,-8.185950279E0,-3.564000130E0
1.926178781E0,1.930050135E0,-7.912950516E0,-3.039000034E0
1.928681243E0,3.526950121E0,-7.411950588E0,-2.733000040E0
1.931183704E0,4.689000130E0,-6.802050114E0,-2.004000187E0
1.933686165E0,5.248950481E0,-6.162000179E0,-1.279050112E0
1.936188626E0,5.137050152E0,-5.668950081E0,-6.700500250E-1
1.938691087E0,4.902000427E0,-5.254050255E0,-3.850500286E-1
1.941193548E0,4.672049999E0,-4.894950390E0,2.910000086E-1
1.943696010E0,4.015950203E0,-4.411050320E0,1.309050083E0
1.946198243E0,4.873050213E0,-4.138050079E0,1.659000039E0
1.948700687E0,4.714950085E0,-3.801000118E0,1.657050133E0
1.951203149E0,4.060950279E0,-3.408000231E0,1.654050112E0
1.953705610E0,3.855000257E0,-3.034050226E0,1.672950029E0
1.956208082E0,3.493950129E0,-2.674950123E0,1.707000136E0
1.958710577E0,2.491950035E0,-2.218050003E0,1.708950043E0
1.961213270E0,1.486950040E0,-1.842000127E0,1.851000071E0
1.963715502E0,9.880500436E-1,-1.561050057E0,1.864950061E0
1.966218193E0,8.179500103E-1,-1.228050113E0,1.888950109E0
1.968720425E0,-1.870500147E-1,-8.089500666E-1,2.298000097E0
1.971223116E0,-1.339050055E0,-3.210000098E-1,2.935050249E0
1.973725349E0,-2.167050123E0,1.429500133E-1,3.882000208E0
1.976228039E0,-2.269950151E0,5.790000558E-1,4.246050358E0
1.978730272E0,-2.104950190E0,1.000050068E0,4.246050358E0
1.981232962E0,-4.081050396E0,1.393050075E0,5.010000229E0
1.983735425E0,-4.819050312E0,1.635000110E0,5.412000179E0
1.986237887E0,-5.620950222E0,1.695000052E0,5.505000114E0
1.988740123E0,-6.004050255E0,1.948950052E0,5.994000435E0
1.991242582E0,-6.628950119E0,1.501050115E0,5.629950047E0
1.993745030E0,-7.189950466E0,6.820500493E-1,4.837050438E0
1.996247491E0,-7.957950592E0,-8.400000632E-2,4.459050179E0
1.998749967E0,-8.730000496E0,-7.879500389E-1,4.546950340E0
2.001252429E0,-9.043050766E0,-1.453950047E0,4.684050083E0
2.003754890E0,-9.406949997E0,-2.364000082E0,4.906949997E0
2.006257352E0,-9.879000664E0,-2.971950054E0,5.103000164E0
2.008759814E0,-1.013100052E1,-3.451050282E0,5.553000450E0
2.011262276E0,-1.029105091E1,-3.676050186E0,5.980050087E0
2.013764738E0,-9.937050819E0,-3.832050085E0,6.339000225E0
2.016267200E0,-9.622950554E0,-3.834000111E0,6.157050133E0
2.018769661E0,-9.289950371E0,-3.607050180E0,5.443050385E0
2.021272132E0,-9.706950188E0,-3.088950157E0,4.918950081E0
2.023774593E0,-1.527000046E1,-1.633050084E0,5.508000374E0
2.026277054E0,-1.299300098E1,-1.252050042E0,3.655950069E0
2.028779516E0,-1.032495022E1,-1.390950084E0,1.594050050E0
2.031281978E0,-1.004700089E1,-1.281000018E0,8.089500666E-1
2.033784440E0,-9.493950844E0,-1.081950068E0,-2.010000050E-1
2.036286887E0,-9.610950470E0,-5.839500427E-1,-1.000950098E0
2.038789349E0,-8.976000786E0,-5.205000192E-2,-1.357950091E0
2.041291824E0,-7.467000484E0,-3.795000166E-2,-2.269950151E0
2.043794285E0,-8.056950569E0,-2.680500150E-1,-2.551050186E0
2.046296746E0,-8.353950500E0,-3.829500079E-1,-2.767950058E0
2.048799207E0,-8.422950745E0,-2.920500040E-1,-2.979000092E0
2.051301668E0,-8.683950424E0,-5.700000376E-2,-2.644050121E0
2.053804130E0,-8.791950226E0,3.795000166E-2,-2.218050003E0
2.056306592E0,-8.694000244E0,1.120500043E-1,-1.873050094E0
2.058809054E0,-8.454000473E0,9.300000221E-2,-1.600050092E0
2.061311516E0,-8.269950867E0,7.605000585E-2,-1.267050028E0
2.063813901E0,-8.338950157E0,2.869500220E-1,-1.165950060E0
2.066316385E0,-9.055050850E0,9.400500655E-1,-1.870050073E0
2.068818846E0,-8.527950287E0,9.120000601E-1,-1.612050056E0
2.071321304E0,-7.930050373E0,7.300500274E-1,-1.137000084E0
2.073823765E0,-7.767000198E0,5.740500093E-1,-1.159050107E0
2.076326227E0,-7.137000561E0,4.210500121E-1,-1.249950051E0
2.078828712E0,-6.426000118E0,4.710000157E-1,-1.293000102E0
2.081331251E0,-6.013950348E0,4.330500066E-1,-1.171050072E0
2.083833638E0,-5.559000492E0,3.370500207E-1,-9.270000458E-1
2.086336174E0,-5.779050350E0,3.370500207E-1,-6.940500140E-1
2.088838561E0,-6.214950085E0,4.020000100E-1,-9.049500227E-1
2.091341097E0,-6.198000431E0,2.650500238E-1,-8.190000653E-1
2.093843484E0,-5.769000053E0,2.410500050E-1,-7.369500399E-1
2.096345943E0,-5.688000202E0,-2.080500126E-1,-6.700500250E-1
2.098848405E0,-5.499000072E0,-8.719500303E-1,-3.900000155E-1
2.101350866E0,-5.341050148E0,-1.710000038E0,-3.540000021E-1
2.103853328E0,-6.367950439E0,-1.875000119E0,-5.550000072E-1
2.106355803E0,-6.952950478E0,-1.651950121E0,-8.430000544E-1
2.108858265E0,-6.406050205E0,-2.421000004E0,-4.860000312E-1
2.111360727E0,-5.725950241E0,-3.394050121E0,-3.210000098E-1
2.113863179E0,-4.906949997E0,-4.315950394E0,-4.309500158E-1
2.116365641E0,-4.513950348E0,-5.686050415E0,-5.770500302E-1
2.118868094E0,-5.941950321E0,-8.044950485E0,3.000000119E-2
2.121370556E0,-6.696000099E0,-9.289950371E0,4.110000134E-1
2.123873012E0,-6.772950172E0,-9.697050095E0,1.117950082E0
2.126375473E0,-7.563000202E0,-9.793050766E0,2.049000025E0
2.128877934E0,-9.108000755E0,-9.894000053E0,1.944000125E0
2.131380395E0,-9.048000336E0,-9.826950073E0,2.542950153E0
2.133882856E0,-9.532050133E0,-9.883950233E0,3.769050121E0
2.136385318E0,-1.139805031E1,-1.010700035E1,4.441950321E0
2.138887780E0,-1.215705013E1,-1.049205017E1,4.339050293E0
2.141390242E0,-1.191705036E1,-1.044000053E1,4.609950066E0
2.143892704E0,-1.323705101E1,-1.059795094E1,4.564050198E0
2.146395166E0,-1.425300026E1,-1.052400017E1,4.222050190E0
2.148897628E0,-1.464300060E1,-1.044000053E1,4.159049988E0
2.151400089E0,-1.513605118E1,-1.053105068E1,4.246050358E0
2.153902550E0,-1.499700069E1,-1.052100086E1,4.060950279E0
2.156405011E0,-1.435800076E1,-1.078200054E1,3.670950174E0
2.158907477E0,-1.381200027E1,-1.170405102E1,3.168000221E0
2.161409938E0,-1.329900074E1,-1.253505039E1,1.960950136E0
2.163912400E0,-1.290900040E1,-1.236000061E1,1.965000153E0
2.166414633E0,-1.331100082E1,-1.202295017E1,2.076000214E0
2.168917092E0,-1.435995102E1,-1.206795025E1,1.446000099E0
2.171419554E0,-1.564200115E1,-1.231995106E1,1.254000068E0
2.173922015E0,-1.691100121E1,-1.249905014E1,1.254000068E0
2.176424477E0,-1.773495102E1,-1.273905087E1,1.393050075E0
2.178926938E0,-1.864995003E1,-1.285905075E1,1.387950063E0
2.181429390E0,-1.900905037E1,-1.249905014E1,6.529500484E-1
2.183931852E0,-1.931295013E1,-1.251405048E1,3.319500089E-1
2.186434319E0,-1.965795135E1,-1.263795090E1,6.460500360E-1
2.188936781E0,-1.927305031E1,-1.221705055E1,1.206000090E0
2.191439243E0,-1.913100052E1,-1.192200089E1,2.089950085E0
2.193941705E0,-1.870995140E1,-1.152195072E1,2.629050016E0
2.196444395E0,-1.831905174E1,-1.092105007E1,3.240000248E0
2.198946652E0,-1.794600105E1,-1.033695030E1,4.080000401E0
2.201449111E0,-1.770600128E1,-9.819000244E0,5.146050453E0
2.203951573E0,-1.736400032E1,-9.118050575E0,5.926950455E0
2.206454048E0,-1.644404984E1,-8.358000755E0,6.868050098E0
2.208956510E0,-1.532100105E1,-7.549050331E0,7.611000538E0
2.211458972E0,-1.434405041E1,-6.687000275E0,7.912050247E0
2.213961433E0,-1.399905109E1,-6.490050316E0,8.218950272E0
2.216463895E0,-1.320600033E1,-6.526050091E0,8.857950211E0
2.218966362E0,-1.209000015E1,-6.955050468E0,9.424050331E0
2.221468824E0,-1.101705074E1,-7.711950302E0,9.955050468E0
2.223971262E0,-9.988950729E0,-8.590950012E0,1.009695053E1
2.226473724E0,-9.391050339E0,-9.553950310E0,1.000605011E1
2.228976185E0,-8.976000786E0,-1.028895092E1,9.934050560E0
2.231478646E0,-8.325000763E0,-1.076505089E1,9.694050789E0
2.233981117E0,-7.699950218E0,-1.127595043E1,9.304050446E0
2.236483578E0,-7.206000328E0,-1.183800030E1,8.775000572E0
2.238986040E0,-6.604950428E0,-1.240605068E1,8.053950310E0
2.241488473E0,-6.066000462E0,-1.272705078E1,7.249050140E0
2.243990935E0,-5.568000317E0,-1.284195042E1,6.516000271E0
2.246493397E0,-5.116050243E0,-1.278900051E1,5.781000137E0
2.248995859E0,-4.703999996E0,-1.275300026E1,5.083950043E0
2.251498320E0,-4.306050301E0,-1.279395103E1,4.480050087E0
2.254000705E0,-4.207950115E0,-1.277205086E1,4.008000374E0
2.256503241E0,-3.853050232E0,-1.229805088E1,3.505050182E0
2.259005705E0,-3.541950226E0,-1.171605015E1,2.701050043E0
2.261508166E0,-3.427050114E0,-1.110600090E1,1.648950100E0
2.264010628E0,-3.168000221E0,-1.073895073E1,1.348050117E0
2.266513085E0,-2.890950203E0,-1.049700069E1,7.320000529E-1
2.269015546E0,-2.200950146E0,-1.005195045E1,3.199500144E-1
2.271517931E0,-1.711950064E0,-9.865050316E0,-2.350500077E-1
2.274020390E0,-2.830950022E0,-9.538950920E0,-8.959500194E-1
2.276522842E0,-3.367050171E0,-9.064949989E0,-1.102050066E0
2.279025303E0,-3.561000109E0,-8.799000740E0,-1.525050044E0
2.281527765E0,-3.808050156E0,-8.500050545E0,-1.770000100E0
2.284030236E0,-4.243950367E0,-8.296050072E0,-1.755000114E0
2.286532698E0,-4.465950012E0,-8.173950195E0,-1.516050100E0
2.289035160E0,-4.384950161E0,-8.059050560E0,-1.387050033E0
2.291537636E0,-4.258049965E0,-7.954050541E0,-1.159050107E0
2.294040098E0,-4.240950108E0,-7.834050179E0,-8.980500698E-1
2.296542560E0,-4.498050213E0,-7.648950577E0,-7.660500407E-1
2.299045022E0,-4.957050323E0,-7.309050560E0,-5.580000281E-1
2.301547483E0,-5.025000095E0,-7.129950523E0,-2.080500126E-1
2.304049944E0,-4.653000355E0,-6.900000095E0,-3.105000220E-2
2.306552405E0,-3.784050226E0,-6.643950462E0,6.310500503E-1
2.309054866E0,-4.677000046E0,-6.520950317E0,9.520500302E-1
2.311557351E0,-5.269050121E0,-6.226950169E0,1.102950096E0
2.314059813E0,-5.568000317E0,-6.033000469E0,1.405050039E0
2.316562266E0,-5.554050446E0,-6.018000126E0,1.803000093E0
2.319064728E0,-5.632950306E0,-5.865000248E0,1.987050056E0
2.321567190E0,-5.652000427E0,-5.800950050E0,1.879050136E0
2.324069652E0,-5.443950176E0,-5.559000492E0,1.840950131E0
2.326572114E0,-5.226000309E0,-5.271000385E0,1.960950136E0
2.329074575E0,-5.010000229E0,-5.214000225E0,2.125950098E0
2.331577036E0,-4.846950054E0,-5.041050434E0,2.085000038E0
2.334079497E0,-4.890000343E0,-4.849950314E0,2.049000025E0
2.336581729E0,-4.711050034E0,-4.711050034E0,2.205000162E0
2.339084419E0,-4.668000221E0,-4.600950241E0,2.293950081E0
2.341586666E0,-4.668000221E0,-4.474050045E0,2.173950195E0
2.344089356E0,-4.621950150E0,-4.419000149E0,2.143050194E0
2.346591589E0,-4.593000412E0,-4.294050217E0,1.968000054E0
2.349094280E0,-4.525950432E0,-4.246050358E0,1.750050068E0
2.351596512E0,-4.605000019E0,-4.318050385E0,1.575000048E0
2.354099203E0,-4.576950073E0,-4.318050385E0,1.374000072E0
2.356601661E0,-4.252950191E0,-4.228950024E0,9.070500135E-1
2.359104123E0,-4.066950321E0,-4.165050030E0,4.810500145E-1
2.361606574E0,-3.822000265E0,-4.006950378E0,2.479500175E-1
2.364109036E0,-3.576000214E0,-3.613950253E0,-6.405000389E-2
2.366611497E0,-3.463050127E0,-3.436950207E0,-8.100000024E-2
2.369113728E0,-3.214050055E0,-3.432000160E0,-8.100000024E-2
2.371616188E0,-2.815950155E0,-3.424950123E0,-6.705000252E-2
2.374118649E0,-2.629950047E0,-3.385950089E0,1.189500093E-1
2.376621121E0,-2.421000004E0,-3.379050255E0,2.629500031E-1
2.379123582E0,-2.425950050E0,-3.286050081E0,3.030000031E-1
2.381626044E0,-2.170050144E0,-3.292950153E0,3.010500073E-1
2.384128505E0,-1.782000065E0,-3.487050056E0,3.660000265E-1
2.386630967E0,-1.545000076E0,-3.643050194E0,4.519500136E-1
2.389133429E0,-1.288050056E0,-3.822000265E0,5.070000291E-1
2.391635891E0,-9.870000482E-1,-4.074000359E0,5.380499959E-1
2.394138353E0,-6.799500585E-1,-4.299000263E0,5.400000215E-1
2.396640815E0,-2.269500047E-1,-4.645950317E0,5.670000315E-1
2.399143263E0,1.360500008E-1,-4.942950249E0,6.049500108E-1
2.401645724E0,3.850500286E-1,-5.131950378E0,5.809500217E-1
2.404148185E0,5.520000458E-1,-5.293050289E0,6.049500108E-1
2.406650626E0,5.089499950E-1,-5.374050140E0,5.929500461E-1
2.409153087E0,2.410500050E-1,-5.451000214E0,4.830000103E-1
2.411655548E0,9.000000544E-3,-5.452950478E0,5.329500437E-1
2.414158010E0,-3.450000286E-1,-5.467950344E0,5.809500217E-1
2.416660453E0,-6.970500350E-1,-5.455950260E0,6.310500503E-1
2.419162915E0,-6.300000548E-1,-5.539050102E0,8.880000710E-1
2.421665377E0,-6.919500232E-1,-5.563050270E0,1.125000000E0
2.424167839E0,-3.570000231E-1,-5.494050026E0,1.144050002E0
2.426670301E0,-8.929500580E-1,-5.698050499E0,1.321050048E0
2.429172762E0,-1.393950105E0,-5.803050041E0,1.561050057E0
2.431675147E0,-1.651950121E0,-5.899050236E0,1.780950069E0
2.434177606E0,-1.882050037E0,-5.997000217E0,1.932000041E0
2.436680068E0,-1.915950060E0,-6.037950516E0,2.013000011E0
2.439182529E0,-1.588050127E0,-6.117000103E0,1.944000125E0
2.441685010E0,-1.465950012E0,-6.174000263E0,1.873950124E0
2.444187472E0,-1.432050109E0,-6.246000290E0,1.752000093E0
2.446689929E0,-1.285950065E0,-6.241050243E0,1.563000083E0
2.449192391E0,-1.207050085E0,-6.258000374E0,1.434000015E0
2.451694853E0,-1.345950007E0,-6.223950386E0,1.300050020E0
2.454197390E0,-1.473000050E0,-6.078000069E0,1.222950101E0
2.456699776E0,-1.666950107E0,-5.929950237E0,1.233000040E0
2.459202313E0,-1.707000136E0,-5.733000278E0,1.234950066E0
2.461704699E0,-1.636050105E0,-5.451000214E0,1.222950101E0
2.464207159E0,-1.458000064E0,-5.425050259E0,1.246950030E0
2.466709620E0,-5.220000148E-1,-5.398050308E0,1.189950109E0
2.469212082E0,-3.349500299E-1,-5.199000359E0,1.246950030E0
2.471714544E0,-1.113000035E0,-5.082000256E0,1.443000078E0
2.474217005E0,-1.354950070E0,-4.938000202E0,1.728000045E0
2.476719462E0,-1.549050093E0,-5.025000095E0,2.029950142E0
2.479221924E0,-1.437000036E0,-5.104050159E0,2.197950125E0
2.481724386E0,-1.149000049E0,-5.130000114E0,2.418000221E0
2.484226839E0,-9.960000515E-1,-5.190000057E0,2.605050087E0
2.486729301E0,-8.500500321E-1,-5.322000027E0,2.779950142E0
2.489231762E0,-3.349500299E-1,-5.319000244E0,2.904000044E0
2.491734223E0,5.400000140E-2,-5.298000336E0,3.028950214E0
2.494236712E0,-5.890500546E-1,-5.451000214E0,3.163050175E0
2.496739173E0,-9.720000625E-1,-5.413050175E0,3.481950283E0
2.499241635E0,-1.175999999E0,-5.374050140E0,3.766950130E0
2.501744111E0,-1.329000115E0,-5.446050167E0,4.008000374E0
2.504246573E0,-1.375050068E0,-5.584950447E0,4.315050125E0
2.506749035E0,-1.413000107E0,-5.692950249E0,4.672049999E0
2.509251497E0,-1.530000091E0,-5.817000389E0,4.926000118E0
2.511753968E0,-1.825050116E0,-5.925000191E0,5.167950153E0
2.514256429E0,-2.139000177E0,-6.058950424E0,5.410050392E0
2.516758880E0,-2.389950037E0,-6.223950386E0,5.626950264E0
2.519261341E0,-2.710950136E0,-6.507000446E0,5.782950401E0
2.521763802E0,-3.051000118E0,-6.759000301E0,5.917050362E0
2.524266264E0,-3.520050049E0,-7.008000374E0,6.015000343E0
2.526768497E0,-4.071000099E0,-7.324050426E0,6.175950527E0
2.529270956E0,-4.711050034E0,-7.587000370E0,6.279000282E0
2.531773418E0,-5.439000130E0,-7.903050423E0,6.459000111E0
2.534275879E0,-6.256050110E0,-8.204999924E0,6.937950134E0
2.536778341E0,-7.228050232E0,-8.490000725E0,7.639050484E0
2.539280802E0,-8.035050392E0,-8.734050751E0,8.616000175E0
2.541783259E0,-8.695950508E0,-8.789999962E0,1.010895061E1
2.544285721E0,-9.529950142E0,-8.911950111E0,1.192605019E1
2.546788164E0,-1.054005051E1,-8.923950195E0,1.441695023E1
2.549290626E0,-1.194405079E1,-8.751000404E0,1.739700127E1
2.551793088E0,-1.322505093E1,-8.789999962E0,2.019600105E1
2.554295550E0,-1.420500088E1,-8.955000877E0,2.174100113E1
2.556798011E0,-1.488000107E1,-8.976000786E0,2.113305092E1
2.559300459E0,-1.494000053E1,-8.979000092E0,1.877100182E1
2.561809612E0,-1.486305046E1,-9.010050774E0,1.641705132E1
2.564305383E0,-1.530195045E1,-8.979000092E0,1.470000076E1
2.566807879E0,-1.572795105E1,-9.340050697E0,1.333200073E1
2.569310341E0,-1.607295036E1,-9.973050117E0,1.234305096E1
2.571812803E0,-1.633905029E1,-1.066695023E1,1.177095032E1
2.574315293E0,-1.656599998E1,-1.152495098E1,1.117395020E1
2.576817755E0,-1.686300087E1,-1.221900082E1,1.034595013E1
2.579320216E0,-1.724205017E1,-1.258095074E1,9.298950195E0
2.581822678E0,-1.738995171E1,-1.267200089E1,8.113950729E0
2.584325139E0,-1.698495102E1,-1.275300026E1,6.957000256E0
2.586827526E0,-1.652295113E1,-1.258095074E1,5.785950184E0
2.589329985E0,-1.601805115E1,-1.232895088E1,4.753050327E0
2.591832524E0,-1.524900055E1,-1.204005051E1,3.886050224E0
2.594334911E0,-1.448700047E1,-1.179300022E1,3.256050110E0
2.596837447E0,-1.364895058E1,-1.155300045E1,2.812950134E0
2.599339853E0,-1.293495083E1,-1.123005009E1,2.239050150E0
2.601842389E0,-1.213500023E1,-1.099095058E1,1.714050055E0
2.604344815E0,-1.044900036E1,-1.071495056E1,1.330950022E0
2.606847351E0,-8.928000450E0,-1.024605083E1,1.132050037E0
2.609349738E0,-7.386000156E0,-9.871950150E0,7.990500331E-1
2.611852269E0,-5.788950443E0,-9.691950798E0,3.610500097E-1
2.614354733E0,-4.452000141E0,-9.640050888E0,-7.605000585E-2
2.616857117E0,-3.348000050E0,-9.541950226E0,-5.220000148E-1
2.619359606E0,-2.397000074E0,-9.634950638E0,-1.011000037E0
2.621862068E0,-1.549050093E0,-9.709050179E0,-1.582950115E0
2.624364529E0,-8.520000577E-1,-9.754950523E0,-2.160000086E0
2.626866981E0,-4.279500246E-1,-9.742950439E0,-2.548050165E0
2.629369442E0,1.140000075E-1,-9.225000381E0,-2.779950142E0
2.631871904E0,-3.490500152E-1,-9.259050369E0,-3.207000256E0
2.634374366E0,-4.690500200E-1,-9.265950203E0,-3.415050268E0
2.636876828E0,-5.050500035E-1,-8.944950104E0,-3.355050087E0
2.639379290E0,-4.669500291E-1,-8.893050194E0,-3.328950167E0
2.641881752E0,-5.119500160E-1,-8.956950188E0,-3.310050249E0
2.644384213E0,-5.719500184E-1,-8.815950394E0,-3.264000177E0
2.646886674E0,-6.850500107E-1,-8.775000572E0,-3.240000248E0
2.649389145E0,-7.660500407E-1,-8.806050301E0,-3.183000088E0
2.651891606E0,-9.550500512E-1,-8.854050636E0,-3.013050079E0
2.654394068E0,-1.006049991E0,-8.803950310E0,-2.788050175E0
2.656896530E0,-1.129950047E0,-8.767950058E0,-2.638950109E0
2.659398983E0,-1.156949997E0,-8.932950020E0,-2.340000153E0
2.661901445E0,-1.144950032E0,-9.160950661E0,-1.885050058E0
2.664403888E0,-9.409500360E-1,-9.328050613E0,-1.354950070E0
2.666906349E0,-7.369500399E-1,-9.529950142E0,-7.780500650E-1
2.669408810E0,-4.860000312E-1,-9.727950096E0,-6.270000339E-1
2.671911256E0,-1.429500133E-1,-9.645000458E0,-7.969500422E-1
2.674413488E0,4.590000212E-1,-9.328050613E0,-1.327050090E0
2.676915948E0,1.264050007E0,-7.252050400E0,-1.513050079E0
2.679418399E0,6.150000095E-1,-5.677950382E0,-7.609500289E-1
2.681920861E0,-4.450500309E-1,-7.489050388E0,-1.156949997E0
2.684423322E0,-5.650500059E-1,-8.313000679E0,-1.141950011E0
2.686925784E0,-6.630000472E-1,-8.775000572E0,-1.552050114E0
2.689428245E0,-7.519500256E-1,-9.208950043E0,-1.870050073E0
2.691930707E0,-8.880000710E-1,-9.580050468E0,-2.007000208E0
2.694433169E0,-1.269000053E0,-9.795000076E0,-1.807950139E0
2.696935631E0,-1.795950055E0,-9.985050201E0,-1.602000117E0
2.699438093E0,-2.076000214E0,-1.009200001E1,-1.522950053E0
2.701940555E0,-2.257950068E0,-1.005900002E1,-1.489950061E0
2.704443032E0,-2.512050152E0,-9.951000214E0,-1.417950034E0
2.706945493E0,-2.859000206E0,-9.799950600E0,-1.588050127E0
2.709447949E0,-3.099000216E0,-9.730950356E0,-1.866000056E0
2.711950410E0,-3.271050215E0,-9.718950272E0,-2.074050188E0
2.714452871E0,-3.298050165E0,-9.654000282E0,-2.329950094E0
2.716955346E0,-3.280950069E0,-9.534000397E0,-2.637000084E0
2.719457818E0,-3.184950113E0,-9.517950058E0,-2.782950163E0
2.721960280E0,-3.088950157E0,-9.534000397E0,-3.115950108E0
2.724462742E0,-2.890950203E0,-9.585000038E0,-3.360000134E0
2.726965204E0,-2.685000181E0,-9.633000374E0,-3.361950159E0
2.729467666E0,-2.566950083E0,-9.628050804E0,-3.453000069E0
2.731970128E0,-2.397000074E0,-9.589050293E0,-3.505950212E0
2.734472589E0,-2.299050093E0,-9.537000656E0,-3.541950226E0
2.736974974E0,-2.088000059E0,-9.501000404E0,-3.609000206E0
2.739477510E0,-1.897050142E0,-9.453000069E0,-3.645000219E0
2.741979897E0,-1.698000073E0,-9.421950340E0,-3.741000175E0
2.744482423E0,-1.474950075E0,-9.400050163E0,-3.766950130E0
2.746984810E0,-1.420050025E0,-9.463050842E0,-3.769950151E0
2.749487347E0,-1.366950035E0,-9.502950668E0,-3.657000065E0
2.751989805E0,-1.468050122E0,-9.541950226E0,-3.489000082E0
2.754492267E0,-1.450950027E0,-9.592050552E0,-3.298050165E0
2.756994651E0,-1.401000023E0,-9.570000648E0,-3.067950249E0
2.759497111E0,-1.492050052E0,-9.570000648E0,-2.929050207E0
2.761999572E0,-1.522950053E0,-9.585000038E0,-2.682000160E0
2.764502034E0,-1.597050071E0,-9.574950218E0,-2.497950077E0
2.767004495E0,-1.686000109E0,-9.610950470E0,-2.182049990E0
2.769506957E0,-1.621050119E0,-9.580050468E0,-1.978050113E0
2.772009419E0,-1.470000029E0,-9.594000816E0,-1.879950047E0
2.774511881E0,-1.401000023E0,-9.550950050E0,-1.815000057E0
2.777014343E0,-1.213950038E0,-9.505950928E0,-1.710000038E0
2.779516786E0,-1.054050088E0,-9.405000687E0,-1.590000033E0
2.782019248E0,-9.910500646E-1,-9.309000015E0,-1.557000041E0
2.784521709E0,-8.640000224E-1,-9.091050148E0,-1.528050065E0
2.787024146E0,-7.060500383E-1,-8.940000534E0,-1.365000010E0
2.789526607E0,-7.450500131E-1,-8.835000038E0,-1.324050069E0
2.792029068E0,-7.249500155E-1,-8.707950592E0,-1.288050056E0
2.794531505E0,-5.389500260E-1,-8.428050041E0,-1.237950087E0
2.797033967E0,-4.360500276E-1,-8.188050270E0,-1.185000062E0
2.799536444E0,-2.659500241E-1,-7.908000469E0,-1.099050045E0
2.802038906E0,-4.995000362E-2,-7.618050575E0,-1.018050075E0
2.804541368E0,4.050000105E-3,-7.309050560E0,-1.108950019E0
2.807043830E0,1.309500039E-1,-6.061950207E0,-2.351999998E0
2.809546292E0,1.168050051E0,-4.455000401E0,-2.934000254E0
2.812048753E0,1.912950039E0,-4.131000042E0,-2.347050190E0
2.814550984E0,1.330950022E0,-4.513950348E0,-1.767000079E0
2.817053444E0,8.970000148E-1,-4.548000336E0,-1.542000055E0
2.819555905E0,6.889500618E-1,-4.740000248E0,-1.626000047E0
2.822058367E0,5.329500437E-1,-4.986000061E0,-1.719000101E0
2.824560807E0,6.030000448E-1,-5.092050076E0,-1.711950064E0
2.827063499E0,7.939500213E-1,-5.143950462E0,-1.441950083E0
2.829565732E0,9.499500394E-1,-5.263950348E0,-1.213950038E0
2.832068438E0,1.033950090E0,-5.499000072E0,-9.480000734E-1
2.834570670E0,1.065000057E0,-5.614050388E0,-6.900000572E-1
2.837073361E0,1.269000053E0,-5.635050297E0,-2.470500171E-1
2.839575607E0,1.399950027E0,-5.695050240E0,3.679500222E-1
2.842078067E0,1.495950103E0,-5.740950108E0,8.929500580E-1
2.844580505E0,1.498950124E0,-5.788950443E0,1.053000093E0
2.847082966E0,1.575000048E0,-5.901000500E0,1.189950109E0
2.849585428E0,1.503000021E0,-6.078000069E0,1.156050086E0
2.852087903E0,1.489050031E0,-6.366000175E0,1.246950030E0
2.854590365E0,1.482000113E0,-6.615000248E0,1.269000053E0
2.857092827E0,1.369050026E0,-6.960000515E0,1.069950104E0
2.859595289E0,1.194000006E0,-7.314000130E0,7.420500517E-1
2.862097751E0,9.330000281E-1,-7.678050518E0,5.380499959E-1
2.864600213E0,6.670500040E-1,-8.061000824E0,4.540500343E-1
2.867102674E0,1.909500062E-1,-8.469000816E0,3.300000131E-1
2.869605135E0,-2.970000207E-1,-8.827950478E0,1.720500141E-1
2.872107596E0,-8.089500666E-1,-8.974050522E0,5.205000192E-2
2.874610057E0,-1.614000082E0,-9.235050201E0,1.950000064E-3
2.877112519E0,-2.605950117E0,-9.771000862E0,-6.900000572E-2
2.879614967E0,-3.741000175E0,-1.043505096E1,-1.819500029E-1
2.882117439E0,-4.837950230E0,-1.123500061E1,-3.760500252E-1
2.884619901E0,-5.629950047E0,-1.224105072E1,-6.150000095E-1
2.887122363E0,-5.773950100E0,-1.325895023E1,-4.789500237E-1
2.889624804E0,-5.022000313E0,-1.421700096E1,-1.395000052E-2
2.892127265E0,-4.118999958E0,-1.498095036E1,8.710500598E-1
2.894629726E0,-3.693000078E0,-1.577595043E1,1.474950075E0
2.897132187E0,-3.793050289E0,-1.671899986E1,1.743000031E0
2.899634574E0,-4.170000076E0,-1.785195160E1,1.663950086E0
2.902137033E0,-4.198050022E0,-1.901100159E1,1.527000070E0
2.904639495E0,-4.315950394E0,-1.994100189E1,1.288050056E0
2.907141956E0,-4.432950020E0,-2.083605194E1,8.590500355E-1
2.909644418E0,-4.555050373E0,-2.161500168E1,3.780000210E-1
2.912146855E0,-4.462050438E0,-2.178705025E1,-1.050000042E-1
2.914649317E0,-4.192950249E0,-2.159595108E1,-2.539499998E-1
2.917151779E0,-4.030950069E0,-2.139495087E1,-3.570000231E-1
2.919654231E0,-3.717000246E0,-2.107800102E1,-7.690500617E-1
2.922156693E0,-2.905050039E0,-2.048700142E1,-1.216050029E0
2.924659141E0,-1.882050037E0,-1.982295036E1,-1.627950072E0
2.927161603E0,-1.303050041E0,-1.911705017E1,-1.858050108E0
2.929664011E0,-1.578000069E0,-1.753395081E1,-2.473950148E0
2.932166472E0,-1.624050021E0,-1.622400093E1,-2.922000170E0
2.934668933E0,-1.300050020E0,-1.534200096E1,-3.099000216E0
2.937171394E0,-1.336050034E0,-1.445100021E1,-3.238050222E0
2.939673855E0,-1.566000104E0,-1.354800034E1,-3.420000076E0
2.942176317E0,-2.038050175E0,-1.272900105E1,-3.463050127E0
2.944678779E0,-2.445000172E0,-1.204905033E1,-3.480000257E0
2.947181241E0,-2.922000170E0,-1.144605064E1,-3.528000116E0
2.949683703E0,-3.444000244E0,-1.086405087E1,-3.580050230E0
2.952186165E0,-3.901050091E0,-1.033905029E1,-3.633000135E0
2.954688627E0,-4.387050152E0,-9.891000748E0,-3.765000105E0
2.957190857E0,-4.780050278E0,-9.502950668E0,-3.916050196E0
2.959693327E0,-5.143950462E0,-9.199050903E0,-4.054950237E0
2.962195788E0,-4.693950176E0,-8.794050217E0,-4.000050068E0
2.964698250E0,-2.320950031E0,-7.647000313E0,-3.439050198E0
2.967200726E0,-3.910950184E0,-7.210950375E0,-3.801000118E0
2.969703187E0,-4.288949966E0,-7.366950512E0,-4.114050388E0
2.972205654E0,-4.384950161E0,-7.752000332E0,-4.051949978E0
2.974708115E0,-4.960050106E0,-7.879050255E0,-3.801000118E0
2.977210577E0,-5.377050400E0,-7.957950592E0,-3.634950161E0
2.979713269E0,-5.608950138E0,-8.004000664E0,-3.475050211E0
2.982215502E0,-5.713950157E0,-8.173950195E0,-3.247050047E0
2.984718192E0,-5.700000286E0,-8.389950752E0,-3.018000126E0
2.987220425E0,-5.653950214E0,-8.584050179E0,-2.754000187E0
2.989722884E0,-5.542050362E0,-8.857050896E0,-2.479050159E0
2.992225346E0,-5.479950428E0,-9.178050041E0,-2.227050066E0
2.994727808E0,-5.202000141E0,-9.463050842E0,-1.969050050E0
2.997230274E0,-4.953000069E0,-9.645000458E0,-1.707000136E0
2.999732736E0,-4.612950325E0,-9.763950348E0,-1.494000077E0
3.002235168E0,-4.215000153E0,-9.922050476E0,-1.339050055E0
3.004737630E0,-3.786000252E0,-9.925050735E0,-1.197000027E0
3.007240092E0,-3.376950264E0,-9.985050201E0,-1.084950089E0
3.009742468E0,-2.983950138E0,-1.009695053E1,-9.550500512E-1
3.012245004E0,-2.637000084E0,-1.005405045E1,-8.400000334E-1
3.014747387E0,-2.376000166E0,-9.982050896E0,-8.119500279E-1
3.017249923E0,-2.176950216E0,-9.922050476E0,-8.209500313E-1
3.019752387E0,-1.975950122E0,-9.901050568E0,-8.329500556E-1
3.022254848E0,-1.686000109E0,-9.927000046E0,-7.950000167E-1
3.024757310E0,-1.458000064E0,-9.922050476E0,-9.000000358E-1
3.027259772E0,-1.144950032E0,-9.925050735E0,-9.649500251E-1
3.029762233E0,-8.719500303E-1,-9.982050896E0,-1.012950063E0
3.032264694E0,-5.580000281E-1,-1.003005028E1,-1.054050088E0
3.034767155E0,-2.460000068E-1,-1.009200001E1,-1.117950082E0
3.037269616E0,7.605000585E-2,-1.022205067E1,-1.129950047E0
3.039771988E0,4.159500301E-1,-1.034400082E1,-1.129950047E0
3.042274448E0,6.649500132E-1,-1.040595055E1,-1.060950041E0
3.044776909E0,8.710500598E-1,-1.044900036E1,-1.021950006E0
3.047279371E0,9.810000658E-1,-1.046400070E1,-8.740500212E-1
3.049781833E0,1.096050024E0,-1.052100086E1,-7.590000629E-1
3.052284294E0,1.234950066E0,-1.055895042E1,-6.420000196E-1
3.054786751E0,1.381050110E0,-1.058805084E1,-4.549500346E-1
3.057289213E0,1.471950054E0,-1.065495014E1,-2.939999998E-1
3.059791690E0,1.534050107E0,-1.068195057E1,-1.290000081E-1
3.062294152E0,1.687950134E0,-1.070595074E1,1.095000096E-2
3.064796614E0,1.834050059E0,-1.073700047E1,3.180000186E-1
3.067299075E0,1.999050140E0,-1.075800037E1,5.119500160E-1
3.069801536E0,2.119050026E0,-1.081995010E1,6.360000372E-1
3.072303997E0,2.133000135E0,-1.081305027E1,8.809500337E-1
3.074806458E0,2.020950079E0,-1.065495014E1,1.066950083E0
3.077308920E0,1.894050121E0,-1.056405067E1,1.315950036E0
3.079811382E0,1.599000096E0,-1.039905071E1,1.530000091E0
3.082313844E0,1.398000121E0,-1.019100094E1,1.669050097E0
3.084816305E0,1.245000005E0,-1.000905037E1,1.786050081E0
3.087318767E0,9.570000172E-1,-9.823950768E0,1.969950080E0
3.089821228E0,6.000000238E-1,-9.679950714E0,2.097000122E0
3.092323455E0,3.799500167E-1,-9.486000061E0,2.221950054E0
3.094825915E0,1.000500023E-1,-9.261000633E0,2.230950117E0
3.097328380E0,-1.699500084E-1,-9.060000420E0,2.278950214E0
3.099830842E0,-3.469500244E-1,-8.872950554E0,2.389050007E0
3.102333303E0,-5.389500260E-1,-8.751000404E0,2.365050077E0
3.104835996E0,-7.060500383E-1,-8.581050873E0,2.380050182E0
3.107338228E0,-8.520000577E-1,-8.470950127E0,2.308050156E0
3.109840919E0,-9.340500236E-1,-8.397000313E0,2.245950222E0
3.112343151E0,-1.018050075E0,-8.314949989E0,2.212050200E0
3.114845842E0,-1.081950068E0,-8.377950668E0,2.095050097E0
3.117348074E0,-1.161000013E0,-8.526000023E0,2.107050180E0
3.119850562E0,-1.096950054E0,-8.599950790E0,1.924950123E0
3.122353024E0,-1.009950042E0,-8.719950676E0,1.692000031E0
3.124855485E0,-9.310500622E-1,-9.007050514E0,1.611000061E0
3.127357938E0,-8.190000653E-1,-9.367050171E0,1.482000113E0
3.129860399E0,-7.710000277E-1,-9.766950607E0,1.309050083E0
3.132362861E0,-9.360000491E-1,-1.000905037E1,1.177950025E0
3.134865323E0,-1.540050030E0,-1.001805019E1,8.880000710E-1
3.137367785E0,-2.007000208E0,-1.009695053E1,7.819500566E-1
3.139870233E0,-2.215050220E0,-1.030605030E1,1.072050095E0
3.142372695E0,-2.317950010E0,-1.055505085E1,1.327950120E0
3.144875156E0,-2.400000095E0,-1.071000004E1,1.555950046E0
3.147377617E0,-2.457000017E0,-1.094505024E1,1.860000134E0
3.149880059E0,-2.617950201E0,-1.119405079E1,2.242950201E0
3.152382520E0,-2.895000219E0,-1.142205048E1,2.650050163E0
3.154884982E0,-3.148950100E0,-1.152705097E1,3.019050121E0
3.157387444E0,-3.130050182E0,-1.144800091E1,3.490950108E0
3.159889906E0,-3.937050104E0,-1.160805035E1,3.522000074E0
3.162392368E0,-4.783050060E0,-1.202805042E1,3.496050119E0
3.164894753E0,-5.173050404E0,-1.225005054E1,3.322950125E0
3.167397212E0,-5.872050285E0,-1.240800095E1,3.393000126E0
3.169899751E0,-6.736950397E0,-1.260705090E1,3.715950251E0
3.172402162E0,-7.495950222E0,-1.267395020E1,4.372050285E0
3.174904698E0,-7.032000542E0,-1.241595078E1,5.533950329E0
3.177407085E0,-7.848000526E0,-1.218795013E1,6.553950310E0
3.179909573E0,-1.007595062E1,-1.279200077E1,7.338000298E0
3.182412035E0,-1.192005062E1,-1.327800083E1,9.442950249E0
3.184914496E0,-1.336395073E1,-1.380195045E1,1.158105087E1
3.187416958E0,-1.417395115E1,-1.415205097E1,1.320105076E1
3.189919419E0,-1.429995060E1,-1.438695049E1,1.403205109E1
3.192421881E0,-1.377600098E1,-1.455195045E1,1.387095070E1
3.194924381E0,-1.251105022E1,-1.467900085E1,1.270695019E1
3.197426843E0,-1.089705086E1,-1.471695042E1,1.083900070E1
3.199929305E0,-9.352050781E0,-1.476000023E1,8.875050545E0
3.202431767E0,-7.924950600E0,-1.464495087E1,7.126950264E0
3.204934229E0,-6.768000126E0,-1.453005028E1,5.575050354E0
3.207436690E0,-6.049950123E0,-1.443195057E1,4.068000317E0
3.209939151E0,-5.499000072E0,-1.482000065E1,2.911950111E0
3.212441612E0,-4.468950272E0,-1.515300083E1,1.623000026E0
3.214944073E0,-3.907950163E0,-1.543095112E1,6.430500150E-1
3.217446524E0,-3.583050251E0,-1.582095051E1,1.309500039E-1
3.219948986E0,-2.842950106E0,-1.643400002E1,-1.909500062E-1
3.222451444E0,-2.263050079E0,-1.690395164E1,-6.130500436E-1
3.224953906E0,-1.458000064E0,-1.725600052E1,-1.114050031E0
3.227456368E0,-6.799500585E-1,-1.747095108E1,-1.537050128E0
3.229958589E0,3.199500144E-1,-1.811805153E1,-1.735950112E0
3.232461049E0,1.525050044E0,-1.852995110E1,-2.020950079E0
3.234963510E0,2.361000061E0,-1.874295044E1,-2.337000132E0
3.237465972E0,3.151050091E0,-1.933695030E1,-2.638950109E0
3.239968433E0,3.963000298E0,-1.988100052E1,-3.025050163E0
3.242470895E0,4.708050251E0,-2.025000191E1,-3.517950058E0
3.244973357E0,4.945050240E0,-2.059200096E1,-4.171950340E0
3.247475819E0,4.678950310E0,-2.070495033E1,-4.816050053E0
3.249978281E0,3.975000143E0,-2.040300179E1,-5.428950310E0
3.252480743E0,3.199050188E0,-1.999800110E1,-5.980050087E0
3.254983205E0,2.569050074E0,-1.966305161E1,-6.495000362E0
3.257485666E0,1.906050086E0,-1.930395126E1,-6.880950451E0
3.259988141E0,1.066950083E0,-1.888005066E1,-7.029000282E0
3.262490612E0,7.420500517E-1,-1.851795006E1,-7.063050270E0
3.264993073E0,5.290500522E-1,-1.836705017E1,-7.108050346E0
3.267495534E0,3.870000243E-1,-1.796505165E1,-6.889950275E0
3.269998020E0,3.130500019E-1,-1.752405167E1,-6.640950203E0
3.272500482E0,2.359500080E-1,-1.711005020E1,-6.367950439E0
3.275002944E0,1.189500093E-1,-1.655700111E1,-6.097950459E0
3.277505396E0,-2.340000123E-1,-1.616100121E1,-5.865000248E0
3.280007858E0,-4.860000312E-1,-1.564905071E1,-5.635050297E0
3.282510243E0,-7.710000277E-1,-1.516005039E1,-5.475000381E0
3.285012702E0,-9.550500512E-1,-1.466895103E1,-5.403000355E0
3.287515164E0,-1.141950011E0,-1.421205044E1,-5.428950310E0
3.290017625E0,-1.432050109E0,-1.385295105E1,-5.653950214E0
3.292520087E0,-1.770000100E0,-1.344300079E1,-5.892000198E0
3.295022625E0,-2.076000214E0,-1.299300098E1,-6.078000069E0
3.297525012E0,-2.577000141E0,-1.259295082E1,-6.222000122E0
3.300027549E0,-3.232950211E0,-1.219995022E1,-6.457050323E0
3.302529964E0,-3.765000105E0,-1.181205082E1,-6.610050201E0
3.305032501E0,-4.006950378E0,-1.153695011E1,-6.768000126E0
3.307534887E0,-3.798000097E0,-1.146495056E1,-6.589050293E0
3.310037347E0,-3.588000059E0,-1.121805096E1,-5.833950043E0
3.312539808E0,-3.681000233E0,-1.074600029E1,-3.705000162E0
3.315042275E0,-4.399050236E0,-1.008300018E1,3.420000076E-1
3.317544736E0,-5.452950478E0,-9.465000153E0,5.589000225E0
3.320047226E0,-6.712950230E0,-8.746050835E0,1.171605015E1
3.322549688E0,-7.798050404E0,-8.277000427E0,1.688400078E1
3.325052150E0,-7.621050358E0,-8.179050446E0,1.724805069E1
3.327554612E0,-5.800950050E0,-8.458950043E0,1.277700043E1
3.330057074E0,-3.604050159E0,-9.166050911E0,8.125050545E0
3.332559536E0,-2.140950203E0,-9.534000397E0,4.714950085E0
3.335061766E0,-1.168950081E0,-9.702000618E0,2.254950047E0
3.337564457E0,-6.150000095E-1,-9.850950241E0,8.710500598E-1
3.340066920E0,-3.370500207E-1,-9.901050568E0,2.910000086E-1
3.342569382E0,-1.459500045E-1,-1.000095081E1,9.705000371E-2
3.345071823E0,-8.400000632E-2,-1.007100010E1,-3.105000220E-2
3.347574285E0,-1.789500117E-1,-9.870000839E0,-4.620000124E-1
3.350076747E0,-6.195000187E-2,-9.946050644E0,-5.650500059E-1
3.352579189E0,-1.669500023E-1,-9.879000664E0,-4.860000312E-1
3.355081650E0,-2.800500095E-1,-9.726000786E0,-5.790000558E-1
3.357583881E0,-4.759500325E-1,-9.633000374E0,-6.580500603E-1
3.360086341E0,-9.600000381E-1,-9.385950089E0,-9.270000458E-1
3.362588802E0,-1.585050106E0,-9.131999969E0,-1.063050032E0
3.365091264E0,-2.148000002E0,-8.995050430E0,-9.360000491E-1
3.367593726E0,-2.806950092E0,-8.815950394E0,-8.500500321E-1
3.370096187E0,-3.472950220E0,-8.575950623E0,-6.349500418E-1
3.372598649E0,-3.873000145E0,-8.482950211E0,-4.810500145E-1
3.375101110E0,-4.083000183E0,-8.461050034E0,-6.850500107E-1
3.377603572E0,-4.042950153E0,-8.454000473E0,-9.649500251E-1
3.380106024E0,-3.991950274E0,-8.409000397E0,-1.195050001E0
3.382608486E0,-3.970950127E0,-8.362950325E0,-1.303050041E0
3.385110939E0,-3.760050297E0,-8.329950333E0,-1.269000053E0
3.387613401E0,-3.457950115E0,-8.257950783E0,-1.123050094E0
3.390115852E0,-3.064950228E0,-8.299050331E0,-9.529500604E-1
3.392618313E0,-2.644050121E0,-8.266950607E0,-7.950000167E-1
3.395120789E0,-2.196000099E0,-8.272050858E0,-7.090500593E-1
3.397623250E0,-1.782000065E0,-8.332050323E0,-6.559500098E-1
3.400125712E0,-1.381950021E0,-8.284049988E0,-5.910000205E-1
3.402628174E0,-9.529500604E-1,-8.161950111E0,-4.810500145E-1
3.405130636E0,-6.420000196E-1,-8.092950821E0,-4.170000255E-1
3.407633021E0,-3.540000021E-1,-7.980000496E0,-3.760500252E-1
3.410135481E0,-6.405000389E-2,-7.831950188E0,-3.829500079E-1
3.412637942E0,1.639500111E-1,-7.678050518E0,-3.570000231E-1
3.415140404E0,3.490500152E-1,-7.455000401E0,-3.349500299E-1
3.417642866E0,5.020500422E-1,-7.206000328E0,-4.450500309E-1
3.420145346E0,6.940500140E-1,-6.928950310E0,-5.509500504E-1
3.422647808E0,9.000000358E-1,-6.604950428E0,-6.199500561E-1
3.425150346E0,1.077000022E0,-6.370950222E0,-7.660500407E-1
3.427652733E0,1.326000094E0,-6.124050140E0,-8.329500556E-1
3.430155269E0,1.501050115E0,-5.953950405E0,-9.199500680E-1
3.432657636E0,1.692000031E0,-5.869950294E0,-1.123050094E0
3.435160095E0,1.951050043E0,-5.745000362E0,-1.276050091E0
3.437662539E0,2.193000078E0,-5.653950214E0,-1.425000072E0
3.440165000E0,2.413050175E0,-5.491950035E0,-1.477950096E0
3.442667462E0,2.578950167E0,-5.371950150E0,-1.561050057E0
3.445169924E0,2.809050083E0,-5.230950356E0,-1.695000052E0
3.447672386E0,3.115050077E0,-5.101050377E0,-1.858050108E0
3.450174848E0,3.316050053E0,-5.083950043E0,-2.016000032E0
3.452677310E0,3.534000158E0,-5.041050434E0,-2.143050194E0
3.455179772E0,3.742950201E0,-5.083950043E0,-2.251049995E0
3.457682233E0,3.898050070E0,-5.218950272E0,-2.385000229E0
3.460184464E0,4.090050220E0,-5.307000160E0,-2.400000095E0
3.462687182E0,4.321950436E0,-5.329050064E0,-2.218050003E0
3.465189415E0,4.519050121E0,-5.274000168E0,-1.972950101E0
3.467692081E0,4.693050385E0,-5.266050339E0,-1.638000131E0
3.470194545E0,4.879950047E0,-5.350050449E0,-1.252050042E0
3.472697006E0,5.104950428E0,-5.428950310E0,-9.630000591E-1
3.475199464E0,5.268000126E0,-5.496000290E0,-8.620500565E-1
3.477701926E0,5.335050106E0,-5.590050220E0,-7.849500179E-1
3.480204387E0,5.437950134E0,-5.626050472E0,-6.460500360E-1
3.482706618E0,5.544000149E0,-5.665950298E0,-5.719500184E-1
3.485209077E0,5.611050129E0,-5.716950417E0,-5.890500546E-1
3.487711539E0,5.605950356E0,-5.764950275E0,-5.959500074E-1
3.490214001E0,5.605950356E0,-5.844000340E0,-5.890500546E-1
3.492716462E0,5.709000111E0,-5.892000198E0,-5.170500278E-1
3.495218924E0,5.802000046E0,-5.892000198E0,-4.879500270E-1
3.497721385E0,5.850000381E0,-5.929950237E0,-5.239500403E-1
3.500223833E0,5.833050251E0,-5.904000282E0,-5.290500522E-1
3.502726261E0,5.841000080E0,-5.875050068E0,-5.479500294E-1
3.505228723E0,5.802000046E0,-5.875050068E0,-5.719500184E-1
3.507731185E0,5.698950291E0,-5.889000416E0,-6.490500569E-1
3.510233622E0,5.662950039E0,-5.956050396E0,-6.349500418E-1
3.512736083E0,5.599050045E0,-5.961000443E0,-5.940000415E-1
3.515238553E0,5.428950310E0,-6.046950340E0,-6.180000305E-1
3.517741014E0,5.328000069E0,-6.130950451E0,-6.610500216E-1
3.520243475E0,5.113050461E0,-6.178950310E0,-6.460500360E-1
3.522745937E0,4.861050129E0,-6.232050419E0,-6.940500140E-1
3.525248399E0,4.650000095E0,-6.319950104E0,-7.210500240E-1
3.527750861E0,4.452000141E0,-6.435000420E0,-7.759500146E-1
3.530253246E0,4.272000313E0,-6.496950150E0,-7.090500593E-1
3.532755706E0,4.063950062E0,-6.592950344E0,-6.490500569E-1
3.535258167E0,3.807000160E0,-6.676950455E0,-6.109500527E-1
3.537760629E0,3.640050173E0,-6.756000519E0,-5.149500370E-1
3.540263086E0,3.478950262E0,-6.880950451E0,-4.309500158E-1
3.542765547E0,3.340050220E0,-7.029000282E0,-3.420000076E-1
3.545268009E0,3.217950106E0,-7.159050465E0,-2.350500077E-1
3.547770467E0,3.036000252E0,-7.312050343E0,-1.360500008E-1
3.550272929E0,2.868000031E0,-7.534950256E0,-2.100000158E-2
3.552775391E0,2.665050030E0,-7.705050468E0,6.105000153E-2
3.555277872E0,2.445000172E0,-7.860000610E0,1.720500141E-1
3.557780333E0,2.109000206E0,-7.968000412E0,3.010500073E-1
3.560282818E0,1.800000072E0,-8.167050362E0,4.489500225E-1
3.562785279E0,1.386000037E0,-8.287050247E0,5.430000424E-1
3.565287740E0,9.019500613E-1,-8.397000313E0,6.910500526E-1
3.567790182E0,4.110000134E-1,-8.551950455E0,8.179500103E-1
3.570292644E0,2.595000155E-2,-8.695950508E0,1.021950006E0
3.572795106E0,-4.789500237E-1,-8.812950134E0,1.206000090E0
3.575297568E0,-9.409500360E-1,-8.914050102E0,1.366950035E0
3.577800030E0,-1.389000058E0,-9.120000839E0,1.563000083E0
3.580302492E0,-1.887000084E0,-9.333000183E0,1.822050095E0
3.582804954E0,-2.383050203E0,-9.526950836E0,2.064000130E0
3.585307415E0,-2.806950092E0,-9.745050430E0,2.430000067E0
3.587809876E0,-3.408000231E0,-9.934050560E0,2.710050106E0
3.590312337E0,-4.030950069E0,-1.018605042E1,3.055050135E0
3.592814788E0,-4.402050018E0,-1.045905018E1,3.574950218E0
3.595317249E0,-4.993050098E0,-1.072905064E1,3.958050251E0
3.597819701E0,-5.662050247E0,-1.098105049E1,4.309950352E0
3.600322163E0,-6.390000343E0,-1.123500061E1,4.558950424E0
3.602824395E0,-7.081950188E0,-1.148595047E1,4.818000317E0
3.605326870E0,-7.912950516E0,-1.167300034E1,4.935000420E0
3.607829331E0,-8.607000351E0,-1.183605099E1,4.987950325E0
3.610331793E0,-9.349950790E0,-1.201095104E1,4.950000286E0
3.612834264E0,-9.517950058E0,-1.221900082E1,5.196000099E0
3.615336725E0,-1.068405056E1,-1.216395092E1,4.674000263E0
3.617839187E0,-1.147005081E1,-1.225995064E1,4.264950275E0
3.620341648E0,-1.196100044E1,-1.233705044E1,4.138050079E0
3.622844110E0,-1.264500046E1,-1.235295105E1,3.939000130E0
3.625346572E0,-1.329705048E1,-1.220700073E1,3.537000179E0
3.627849034E0,-1.363905048E1,-1.215195084E1,3.261000156E0
3.630351496E0,-1.379505062E1,-1.218300056E1,3.085950136E0
3.632853958E0,-1.445400047E1,-1.207995033E1,2.512050152E0
3.635356419E0,-1.494195080E1,-1.214505100E1,2.422950029E0
3.637858880E0,-1.535895061E1,-1.234395027E1,2.775000095E0
3.640361332E0,-1.596705055E1,-1.251105022E1,2.887950182E0
3.642863793E0,-1.656405067E1,-1.279605103E1,3.283050060E0
3.645366264E0,-1.717905045E1,-1.303095055E1,4.030050278E0
3.647868650E0,-1.803900146E1,-1.325895023E1,4.665000439E0
3.650371110E0,-1.871895027E1,-1.350300026E1,5.733000278E0
3.652873591E0,-1.960305023E1,-1.368705082E1,6.466050148E0
3.655376053E0,-2.013000107E1,-1.385505104E1,6.703050137E0
3.657878514E0,-2.031405067E1,-1.387905025E1,6.751050472E0
3.660380985E0,-1.992600060E1,-1.399395084E1,6.559050083E0
3.662883446E0,-1.898295021E1,-1.390995026E1,5.806950092E0
3.665385908E0,-1.754594994E1,-1.372605038E1,4.978050232E0
3.667888375E0,-1.538295078E1,-1.345305061E1,4.561950207E0
3.670390837E0,-1.309095097E1,-1.302900028E1,4.120950222E0
3.672893318E0,-1.123695087E1,-1.260195065E1,3.726000071E0
3.675395780E0,-9.874050140E0,-1.218795013E1,3.333000183E0
3.677898242E0,-8.847000122E0,-1.182600021E1,2.868000031E0
3.680400703E0,-7.954050541E0,-1.167105103E1,2.458950043E0
3.682903164E0,-7.089000225E0,-1.160805035E1,1.984950066E0
3.685405625E0,-6.535950184E0,-1.154400063E1,1.579950094E0
3.687908086E0,-5.808000088E0,-1.165395069E1,1.132050037E0
3.690410547E0,-4.888050079E0,-1.186995029E1,6.790500283E-1
3.692913009E0,-3.955950260E0,-1.216905022E1,2.100000083E-1
3.695415471E0,-3.013050079E0,-1.245195103E1,-1.840500087E-1
3.697917703E0,-2.016000032E0,-1.276800060E1,-3.589500189E-1
3.700420418E0,-9.000000358E-1,-1.311495018E1,-3.040500283E-1
3.702922650E0,1.330500096E-1,-1.357200050E1,-2.010000050E-1
3.705425341E0,1.156050086E0,-1.398405075E1,-1.360500008E-1
3.707927804E0,2.056950092E0,-1.451100063E1,5.895000324E-2
3.710430300E0,2.734050035E0,-1.496100044E1,1.690500081E-1
3.712932761E0,3.406950235E0,-1.540005112E1,3.390000165E-1
3.715435223E0,3.895950079E0,-1.597005081E1,3.799500167E-1
3.717937684E0,4.183050156E0,-1.659000015E1,4.999500215E-1
3.720439915E0,4.476000309E0,-1.722000122E1,6.049500108E-1
3.722942375E0,4.720050335E0,-1.795800018E1,6.889500618E-1
3.725444865E0,4.867950439E0,-1.876005173E1,7.249500155E-1
3.727947327E0,5.074050426E0,-1.947405052E1,6.889500618E-1
3.730449788E0,5.388000488E0,-2.024295044E1,5.689499974E-1
3.732952264E0,5.671050072E0,-2.104200172E1,4.279500246E-1
3.735454726E0,5.854950428E0,-2.177100182E1,3.559500277E-1
3.737957188E0,6.001050472E0,-2.239800072E1,4.110000134E-1
3.740459660E0,6.472950459E0,-2.299395180E1,9.670500755E-1
3.742962122E0,7.042950153E0,-2.338200188E1,1.824000120E0
3.745464584E0,7.492950439E0,-2.322195053E1,3.061950207E0
3.747967059E0,8.080050468E0,-2.247000122E1,5.604000092E0
3.750469520E0,8.005949974E0,-2.114100075E1,6.550050259E0
3.752971981E0,7.315950394E0,-1.922700119E1,5.941050053E0
3.755474442E0,6.447000504E0,-1.703805161E1,4.777050018E0
3.757976903E0,5.539050102E0,-1.481805038E1,3.838050127E0
3.760479365E0,4.794000149E0,-1.273695087E1,2.956950188E0
3.762981827E0,4.411050320E0,-1.114095020E1,2.296050072E0
3.765484213E0,4.375050068E0,-9.949050903E0,1.822050095E0
3.767986673E0,4.357950211E0,-8.992950439E0,1.462950110E0
3.770489134E0,4.425000191E0,-8.204999924E0,1.156050086E0
3.772991606E0,4.486950397E0,-7.579950333E0,9.019500613E-1
3.775494067E0,4.483050346E0,-7.051050186E0,8.209500313E-1
3.777996529E0,4.401000023E0,-6.435000420E0,8.470500112E-1
3.780498999E0,4.234050274E0,-5.829000473E0,9.430500269E-1
3.783001538E0,4.080000401E0,-5.254050255E0,1.041000009E0
3.785503924E0,3.858000278E0,-4.663050175E0,1.120050073E0
3.788006384E0,3.625050068E0,-4.123950005E0,1.089000106E0
3.790508846E0,3.373950243E0,-3.553950071E0,1.069950104E0
3.793011307E0,3.148950100E0,-3.015000105E0,9.979500771E-1
3.795513769E0,2.968950033E0,-2.521950006E0,8.520000577E-1
3.798016230E0,2.788950205E0,-2.091000080E0,6.649500132E-1
3.800518688E0,2.619000196E0,-1.681050062E0,5.170500278E-1
3.803021150E0,2.433000088E0,-1.429950118E0,2.839500010E-1
3.805523612E0,2.382000208E0,-1.149000049E0,9.000000544E-3
3.808026074E0,2.296050072E0,-1.042050004E0,-2.610000074E-1
3.810528536E0,2.145000219E0,-8.050500154E-1,-4.980000257E-1
3.813030767E0,1.930050135E0,-6.630000472E-1,-7.330500484E-1
3.815533457E0,1.683000088E0,-5.629500151E-1,-1.020000100E0
3.818035921E0,1.402950048E0,-5.310000181E-1,-1.324050069E0
3.820538382E0,1.015050054E0,-4.480500221E-1,-1.429950118E0
3.823040839E0,5.260500312E-1,-4.090500176E-1,-1.593000054E0
3.825543300E0,-4.500000179E-2,-4.600500166E-1,-1.746000051E0
3.828045762E0,-6.109500527E-1,-7.020000219E-1,-1.779000044E0
3.830548223E0,-8.050500154E-1,-1.389000058E0,-1.741050124E0
3.833050684E0,-8.880000710E-1,-2.107050180E0,-1.711950064E0
3.835552916E0,-1.000950098E0,-2.766000032E0,-1.731000066E0
3.838055394E0,-1.132950068E0,-3.373950243E0,-1.767000079E0
3.840557856E0,-1.224000096E0,-3.837000132E0,-1.779000044E0
3.843060317E0,-1.237950087E0,-4.546050072E0,-1.782000065E0
3.845562774E0,-1.284000039E0,-5.451000214E0,-1.870050073E0
3.848065235E0,-1.225950003E0,-6.258000374E0,-2.014050007E0
3.850567697E0,-9.840000272E-1,-7.068000317E0,-2.146050215E0
3.853070158E0,-6.679500341E-1,-7.884000301E0,-2.212949991E0
3.855572620E0,-6.270000339E-1,-8.962050438E0,-2.323050022E0
3.858075048E0,-2.800500095E-1,-1.005900002E1,-2.368050098E0
3.860577510E0,1.789500117E-1,-1.104795074E1,-2.445000172E0
3.863079972E0,6.720000505E-1,-1.205205059E1,-2.658000231E0
3.865582434E0,1.168050051E0,-1.304505062E1,-2.929050207E0
3.868084896E0,1.669050097E0,-1.395105076E1,-3.343050241E0
3.870587357E0,2.107050180E0,-1.489695072E1,-3.856050253E0
3.873089818E0,2.490000010E0,-1.587195110E1,-4.540950298E0
3.875592279E0,2.938050032E0,-1.655895042E1,-5.167950153E0
3.878094740E0,3.223050117E0,-1.704300117E1,-5.887050152E0
3.880597201E0,3.177000046E0,-1.718895149E1,-6.663000107E0
3.883099579E0,2.811000109E0,-1.697100067E1,-7.554000378E0
3.885602039E0,2.227050066E0,-1.647300148E1,-8.410950661E0
3.888104500E0,1.612950087E0,-1.585695076E1,-9.087000847E0
3.890606957E0,9.499500394E-1,-1.518405056E1,-9.394950867E0
3.893109495E0,3.750000298E-1,-1.452300072E1,-9.505950928E0
3.895611882E0,-1.939500123E-1,-1.393200111E1,-9.498000145E0
3.898114418E0,-6.970500350E-1,-1.351500034E1,-9.139050484E0
3.900616805E0,-1.161000013E0,-1.298100090E1,-8.442000389E0
3.903119326E0,-1.534950018E0,-1.234605026E1,-7.594050407E0
3.905621713E0,-1.662000060E0,-1.174695015E1,-6.784950256E0
3.908124172E0,-1.762950063E0,-1.122495079E1,-6.213000298E0
3.910626625E0,-1.846050143E0,-1.073700047E1,-5.698050499E0
3.913129087E0,-1.831950068E0,-1.020000076E1,-5.214000225E0
3.915631548E0,-1.774050117E0,-9.733050346E0,-4.699050426E0
3.918134010E0,-1.765050054E0,-9.400050163E0,-4.207950115E0
3.920636453E0,-1.639950037E0,-9.082050323E0,-3.802950144E0
3.923138915E0,-1.477950096E0,-8.775000572E0,-3.451050282E0
3.925641357E0,-1.456050038E0,-8.494950294E0,-3.115950108E0
3.928143819E0,-1.521000028E0,-8.197950363E0,-2.874000072E0
3.930646280E0,-1.579950094E0,-7.990050316E0,-2.581950188E0
3.933148761E0,-1.651950121E0,-7.776000500E0,-2.337000132E0
3.935651222E0,-1.714950085E0,-7.554000378E0,-2.091000080E0
3.938153683E0,-1.729050040E0,-7.375950336E0,-1.810050130E0
3.940656140E0,-1.734000087E0,-7.261050224E0,-1.624050021E0
3.943158602E0,-1.698000073E0,-7.245000362E0,-1.470000029E0
3.945661064E0,-1.636050105E0,-7.210950375E0,-1.381950021E0
3.948163526E0,-1.450950027E0,-7.252050400E0,-1.381950021E0
3.950665988E0,-1.201950073E0,-7.366950512E0,-1.399050117E0
3.953168449E0,-9.430500269E-1,-7.518000126E0,-1.434000015E0
3.955670680E0,-8.380500674E-1,-7.648950577E0,-1.504050016E0
3.958173140E0,-7.369500399E-1,-7.783950329E0,-1.570950031E0
3.960675601E0,-6.780000329E-1,-7.872000217E0,-1.624050021E0
3.963178063E0,-6.630000472E-1,-8.041950226E0,-1.702950120E0
3.965680524E0,-7.450500131E-1,-8.215050697E0,-1.777050138E0
3.968182986E0,-8.209500313E-1,-8.392050743E0,-1.870050073E0
3.970685447E0,-8.500500321E-1,-8.608050346E0,-1.891950130E0
3.973187909E0,-8.190000653E-1,-8.875950813E0,-1.924950123E0
3.975690380E0,-8.239500523E-1,-9.112950325E0,-1.939950109E0
3.978192842E0,-8.929500580E-1,-9.333000183E0,-1.921050072E0
3.980695295E0,-8.910000324E-1,-9.493950844E0,-1.834050059E0
3.983197757E0,-9.550500512E-1,-9.685050011E0,-1.765050054E0
3.985700219E0,-1.057950020E0,-9.829050064E0,-1.674000025E0
3.988202675E0,-1.188000083E0,-9.961050034E0,-1.545000076E0
3.990705136E0,-1.291050076E0,-1.007805061E1,-1.465950012E0
3.993207597E0,-1.408050060E0,-1.019805050E1,-1.378950119E0
3.995710043E0,-1.618950129E0,-1.038195038E1,-1.339050055E0
3.998212429E0,-1.675950050E0,-1.049505043E1,-1.353000045E0
4.000714889E0,-1.782000065E0,-1.059795094E1,-1.342950106E0
4.003217427E0,-1.930050135E0,-1.069800091E1,-1.300050020E0
4.005719814E0,-2.091000080E0,-1.081305027E1,-1.327050090E0
4.008222350E0,-2.277000189E0,-1.090905094E1,-1.393950105E0
4.010724737E0,-2.412000179E0,-1.095705032E1,-1.393950105E0
4.013227274E0,-2.598000050E0,-1.097400093E1,-1.461000085E0
4.015729660E0,-2.878950119E0,-1.093095016E1,-1.509000063E0
4.018232120E0,-3.087000132E0,-1.086600018E1,-1.473000050E0
4.020734668E0,-3.147000074E0,-1.079895020E1,-1.518000126E0
4.023237055E0,-3.183000088E0,-1.084200096E1,-1.566000104E0
4.025739529E0,-3.159000158E0,-1.081605053E1,-1.593000054E0
4.028241991E0,-3.204000235E0,-1.088505077E1,-1.612050056E0
4.030744452E0,-3.303000212E0,-1.088505077E1,-1.594950080E0
4.033246928E0,-3.379050255E0,-1.090005016E1,-1.648050070E0
4.035749390E0,-3.541950226E0,-1.078695011E1,-1.678950071E0
4.038251852E0,-3.640050173E0,-1.070100021E1,-1.630950093E0
4.040754314E0,-3.568050146E0,-1.063605022E1,-1.624050021E0
4.043256776E0,-3.451050282E0,-1.059105015E1,-1.569000125E0
4.045759238E0,-3.360000134E0,-1.066005039E1,-1.521000028E0
4.048261699E0,-3.259050131E0,-1.067205048E1,-1.492050052E0
4.050764160E0,-3.220950127E0,-1.067400074E1,-1.434000015E0
4.053266621E0,-3.111000061E0,-1.064805031E1,-1.485000014E0
4.055769082E0,-2.914950132E0,-1.060500050E1,-1.843950033E0
4.058271543E0,-2.737050056E0,-1.064100075E1,-2.577000141E0
4.060774001E0,-2.560050011E0,-1.072695065E1,-3.468000174E0
4.063276463E0,-2.493000031E0,-1.068405056E1,-3.991950274E0
4.065778925E0,-2.464050055E0,-1.069605064E1,-4.342050076E0
4.068281387E0,-2.445000172E0,-1.073895073E1,-4.435050011E0
4.070783618E0,-2.613000154E0,-1.080105019E1,-4.111950397E0
4.073286078E0,-2.800050020E0,-1.081605053E1,-3.432000160E0
4.075788534E0,-3.013050079E0,-1.084905052E1,-2.581950188E0
4.078290996E0,-3.220950127E0,-1.080105019E1,-1.663950086E0
4.080793458E0,-3.271050215E0,-1.085595036E1,-7.999500632E-1
4.083295937E0,-3.303000212E0,-1.085895061E1,-1.200000010E-2
4.085798399E0,-3.324000120E0,-1.084005070E1,6.510000229E-1
4.088300860E0,-3.226050138E0,-1.086105061E1,1.218000054E0
4.090803309E0,-3.031950235E0,-1.072200012E1,1.551000118E0
4.093305771E0,-2.994000196E0,-1.047795010E1,1.738050103E0
4.095808199E0,-2.895000219E0,-1.052100086E1,2.124000072E0
4.098310661E0,-2.686950207E0,-1.057605076E1,2.539950132E0
4.100813123E0,-2.524050236E0,-1.069800091E1,2.895000219E0
4.103315584E0,-2.416050196E0,-1.069095039E1,3.172950268E0
4.105818045E0,-2.308950186E0,-1.065495014E1,3.367050171E0
4.108320506E0,-2.170050144E0,-1.065300083E1,3.520050049E0
4.110822967E0,-2.032950163E0,-1.061700058E1,3.613050222E0
4.113325429E0,-1.882050037E0,-1.059105015E1,3.802050114E0
4.115827815E0,-1.723950028E0,-1.053795052E1,3.883950233E0
4.118330352E0,-1.779000044E0,-1.032195091E1,3.667950153E0
4.120832728E0,-1.888950109E0,-1.035105038E1,3.774000168E0
4.123335256E0,-1.642950058E0,-1.054500008E1,4.569000244E0
4.125837642E0,-1.321950078E0,-1.088805008E1,5.335050106E0
4.128340102E0,-8.280000687E-1,-1.130205059E1,6.478050232E0
4.130842645E0,-3.949500322E-1,-1.162305069E1,7.927050591E0
4.133345032E0,-8.400000632E-2,-1.188900089E1,9.024000168E0
4.135847597E0,1.860000044E-1,-1.209000015E1,9.960000038E0
4.138349983E0,3.700500131E-1,-1.216605091E1,1.083900070E1
4.140852443E0,5.620500445E-1,-1.217595100E1,1.140405083E1
4.143354904E0,4.780500233E-1,-1.215900040E1,1.125300026E1
4.145857366E0,2.820000052E-1,-1.205895042E1,1.063305092E1
4.148359827E0,-8.595000207E-2,-1.196100044E1,9.622050285E0
4.150862289E0,-4.980000257E-1,-1.175700092E1,8.437050819E0
4.153364751E0,-9.289500713E-1,-1.158900070E1,7.084050179E0
4.155867213E0,-1.396050096E0,-1.135695076E1,5.781000137E0
4.158369675E0,-1.912950039E0,-1.116495037E1,4.384050369E0
4.160872147E0,-2.359050035E0,-1.082805061E1,2.895000219E0
4.163374609E0,-2.812050104E0,-1.064295006E1,1.819050074E0
4.165877083E0,-3.097050190E0,-1.048995018E1,1.096050024E0
4.168379544E0,-3.328950167E0,-1.026000023E1,4.879500270E-1
4.170882005E0,-3.730950117E0,-1.002495003E1,-2.080500126E-1
4.173384463E0,-4.018949986E0,-9.850950241E0,-8.310000300E-1
4.175886924E0,-4.276950359E0,-9.700050354E0,-1.284000039E0
4.178389161E0,-4.456950188E0,-9.513000488E0,-1.794000030E0
4.180891851E0,-4.713000298E0,-9.333000183E0,-2.212949991E0
4.183394084E0,-4.914000034E0,-9.217950821E0,-2.560050011E0
4.185896544E0,-5.077050209E0,-9.160950661E0,-2.910000086E0
4.188399005E0,-5.211000443E0,-9.096000671E0,-3.274050236E0
4.190901467E0,-5.223000050E0,-9.010050774E0,-3.571050167E0
4.193403928E0,-5.368950367E0,-8.974050522E0,-3.784050226E0
4.195906390E0,-5.532000065E0,-8.872950554E0,-3.889050245E0
4.198408851E0,-5.740950108E0,-8.847000122E0,-3.937050104E0
4.200911313E0,-5.944050312E0,-8.749050140E0,-4.000050068E0
4.203413775E0,-5.989950180E0,-8.690999985E0,-3.856050253E0
4.205916237E0,-6.133050442E0,-8.671950340E0,-3.798000097E0
4.208418699E0,-6.330000401E0,-8.677050591E0,-3.633000135E0
4.210921137E0,-6.507000446E0,-8.655000687E0,-3.355050087E0
4.213423599E0,-6.562050343E0,-8.619000435E0,-3.051000118E0
4.215926074E0,-6.844950199E0,-8.655000687E0,-2.680050135E0
4.218428535E0,-7.084050179E0,-8.622000694E0,-2.220000029E0
4.220930996E0,-7.300050259E0,-8.611950874E0,-1.642950058E0
4.223433382E0,-7.534950256E0,-8.563950539E0,-1.018050075E0
4.225935842E0,-7.768950462E0,-8.574000359E0,-2.749500275E-1
4.228438380E0,-7.954050541E0,-8.617050171E0,6.190500259E-1
4.230940767E0,-8.085000038E0,-8.659950256E0,1.648950100E0
4.233443303E0,-8.203050613E0,-8.758049965E0,2.734050035E0
4.235945690E0,-8.320050240E0,-8.988000870E0,4.011000156E0
4.238448135E0,-8.410950661E0,-9.235050201E0,5.386050224E0
4.240950597E0,-8.512050629E0,-9.451050758E0,6.202050209E0
4.243453029E0,-8.598000526E0,-9.730950356E0,6.588000298E0
4.245955491E0,-8.734050751E0,-1.009500027E1,6.693000317E0
4.248457952E0,-8.811000824E0,-1.047795010E1,6.571050167E0
4.250960419E0,-8.803950310E0,-1.092105007E1,6.403050423E0
4.253462881E0,-8.881050110E0,-1.124700069E1,6.051000118E0
4.255965357E0,-8.899950027E0,-1.165200043E1,5.845050335E0
4.258467819E0,-8.872950554E0,-1.205895042E1,5.704050064E0
4.260970281E0,-8.956950188E0,-1.245195103E1,5.584050179E0
4.263472743E0,-9.015000343E0,-1.296195030E1,5.565000057E0
4.265975204E0,-9.000000000E0,-1.338795090E1,5.683050156E0
4.268477665E0,-9.024000168E0,-1.383105087E1,5.908050060E0
4.270980126E0,-8.821050644E0,-1.414200020E1,5.929050446E0
4.273482587E0,-8.883000374E0,-1.441995049E1,5.680050373E0
4.275985048E0,-8.851950645E0,-1.474095058E1,5.184000015E0
4.278487510E0,-8.490000725E0,-1.489200115E1,4.381950378E0
4.280989972E0,-8.193000793E0,-1.498995113E1,3.249000072E0
4.283492434E0,-7.743000507E0,-1.503795052E1,2.197950125E0
4.285994911E0,-7.333050251E0,-1.501200104E1,1.333050013E0
4.288497373E0,-6.804000378E0,-1.504305077E1,5.500500202E-1
4.290999604E0,-6.322950363E0,-1.492095089E1,-4.950000439E-3
4.293502053E0,-6.018000126E0,-1.476000023E1,-4.450500309E-1
4.296004515E0,-5.781000137E0,-1.460895061E1,-8.170500398E-1
4.298506977E0,-5.434050083E0,-1.463295078E1,-1.161000013E0
4.301009438E0,-5.163000107E0,-1.462905025E1,-1.354950070E0
4.303511900E0,-5.070000172E0,-1.460505104E1,-1.669050097E0
4.306014361E0,-5.001000404E0,-1.457295036E1,-1.837050080E0
4.308516823E0,-4.828050137E0,-1.458495045E1,-1.984950066E0
4.311019285E0,-4.684050083E0,-1.466700077E1,-2.188950062E0
4.313521747E0,-4.440000057E0,-1.481805038E1,-2.416050196E0
4.316024190E0,-4.021049976E0,-1.492095089E1,-2.613000154E0
4.318526652E0,-3.589950085E0,-1.511205101E1,-2.713050127E0
4.321029084E0,-2.965050220E0,-1.531095028E1,-2.674950123E0
4.323531545E0,-2.236950159E0,-1.538100052E1,-2.574000120E0
4.326034006E0,-1.803000093E0,-1.586895084E1,-2.572050095E0
4.328536452E0,-1.284000039E0,-1.659000015E1,-2.509950161E0
4.331038914E0,-7.020000219E-1,-1.714095116E1,-2.341950178E0
4.333541300E0,-2.179500163E-1,-1.773705101E1,-2.236950159E0
4.336043751E0,3.679500222E-1,-1.839795113E1,-2.116950035E0
4.338546212E0,8.059500456E-1,-1.905000114E1,-2.052000046E0
4.341048674E0,1.258950114E0,-1.951005173E1,-2.055000067E0
4.343551135E0,1.338000059E0,-2.000295067E1,-2.083050013E0
4.346053597E0,1.671000123E0,-2.065200043E1,-2.203050137E0
4.348556059E0,2.133000135E0,-2.107395172E1,-2.392050028E0
4.351058521E0,2.325000048E0,-2.134395027E1,-2.488050222E0
4.353560983E0,2.349000216E0,-2.151195145E1,-2.914950132E0
4.356063445E0,2.446950197E0,-2.167695045E1,-3.496950150E0
4.358565888E0,2.770050049E0,-2.185695076E1,-4.009050369E0
4.361068349E0,3.292050123E0,-2.181105042E1,-4.426050186E0
4.363570810E0,3.252000093E0,-2.165595055E1,-4.810950279E0
4.366073255E0,3.268050194E0,-2.148795128E1,-4.978950024E0
4.368575716E0,3.412050247E0,-2.108595085E1,-5.245050430E0
4.371078163E0,3.630000114E0,-2.053200150E1,-5.817000389E0
4.373580625E0,3.846000195E0,-2.003895187E1,-6.112050056E0
4.376083087E0,3.907950163E0,-1.953795052E1,-6.088050365E0
4.378585328E0,4.126049995E0,-1.891800117E1,-5.905950069E0
4.381088019E0,4.200000286E0,-1.815405083E1,-5.671050072E0
4.383590251E0,4.107000351E0,-1.738800049E1,-5.571000099E0
4.386092942E0,4.027950287E0,-1.659000015E1,-5.460000038E0
4.388595405E0,3.823950291E0,-1.575405121E1,-5.199000359E0
4.391097867E0,3.486000061E0,-1.492995071E1,-4.953000069E0
4.393600328E0,3.082050085E0,-1.412100029E1,-4.680000305E0
4.396102790E0,2.827950239E0,-1.342605019E1,-4.366050243E0
4.398605021E0,2.691000223E0,-1.273695087E1,-3.970950127E0
4.401107480E0,2.575950146E0,-1.202295017E1,-3.196950197E0
4.403609942E0,2.485050201E0,-1.137900066E1,-2.136000156E0
4.406112403E0,2.173950195E0,-1.075095081E1,-2.610000074E-1
4.408614847E0,1.834050059E0,-1.018605042E1,1.942050099E0
4.411117308E0,1.465050101E0,-9.534000397E0,4.183050156E0
4.413619770E0,1.096050024E0,-8.812950134E0,6.705000401E0
4.416122245E0,7.420500517E-1,-8.119050026E0,8.839050293E0
4.418624693E0,5.980500579E-1,-7.671000481E0,9.843000412E0
4.421127155E0,6.820500493E-1,-7.546950340E0,9.706050873E0
4.423629617E0,9.430500269E-1,-7.627950191E0,8.548950195E0
4.426132079E0,1.194000006E0,-7.836000443E0,7.096050262E0
4.428634541E0,1.411950111E0,-8.125950813E0,5.638950348E0
4.431137003E0,1.423950076E0,-8.263050079E0,4.498950005E0
4.433639464E0,1.350000024E0,-8.350950241E0,3.649050236E0
4.436141925E0,1.285050035E0,-8.485050201E0,3.084000111E0
4.438644386E0,1.192050099E0,-8.590950012E0,2.698050022E0
4.441146772E0,8.950500488E-1,-8.647950172E0,2.491950035E0
4.443649222E0,4.609500170E-1,-8.659950256E0,2.413050175E0
4.446151683E0,1.549500078E-1,-8.701050758E0,2.242950201E0
4.448654145E0,-1.669500023E-1,-8.789999962E0,2.016000032E0
4.451156606E0,-4.519500136E-1,-8.811000824E0,1.740000129E0
4.453659068E0,-6.750000119E-1,-8.845050812E0,1.336050034E0
4.456161529E0,-9.769500494E-1,-8.919000626E0,7.579500079E-1
4.458663982E0,-1.402950048E0,-8.887950897E0,1.879500151E-1
4.461166444E0,-1.903950095E0,-8.878050804E0,-3.730500042E-1
4.463668906E0,-2.248950005E0,-8.908950806E0,-8.400000334E-1
4.466171368E0,-2.470950127E0,-8.920950890E0,-1.236000061E0
4.468673830E0,-2.620050192E0,-8.818050385E0,-1.609050035E0
4.471176291E0,-2.728050232E0,-8.634000778E0,-1.987950087E0
4.473678752E0,-2.740050077E0,-8.518950462E0,-2.152950048E0
4.476181213E0,-2.737050056E0,-8.502000809E0,-2.184000015E0
4.478683674E0,-2.509950161E0,-8.404050827E0,-2.179050207E0
4.481186155E0,-2.164950132E0,-8.281949997E0,-2.104950190E0
4.483688387E0,-1.746000051E0,-8.148000717E0,-2.076000214E0
4.486191078E0,-1.357950091E0,-8.028000832E0,-1.957050085E0
4.488693311E0,-9.480000734E-1,-7.887000561E0,-1.873050094E0
4.491196001E0,-5.650500059E-1,-7.717050552E0,-1.770000100E0
4.493698234E0,-1.319999993E-1,-7.519950390E0,-1.687950134E0
4.496200693E0,2.770500183E-1,-7.309050560E0,-1.627950072E0
4.498703385E0,6.769500375E-1,-7.068000317E0,-1.609050035E0
4.501205618E0,1.093950033E0,-6.781950474E0,-1.518000126E0
4.503708309E0,1.431000113E0,-6.556950092E0,-1.354950070E0
4.506210541E0,1.681050062E0,-6.331950188E0,-1.228050113E0
4.508713010E0,1.903050065E0,-6.162000179E0,-1.237950087E0
4.511215471E0,2.289000034E0,-5.965950489E0,-1.175999999E0
4.513717933E0,2.557050228E0,-5.853000164E0,-1.197000027E0
4.516220395E0,2.878050089E0,-5.692950249E0,-1.140000105E0
4.518722856E0,3.177000046E0,-5.542050362E0,-1.008000016E0
4.521225318E0,3.300000191E0,-5.427000046E0,-9.840000272E-1
4.523727780E0,3.472050190E0,-5.355000019E0,-9.220500588E-1
4.526230242E0,3.634950161E0,-5.290050030E0,-9.120000601E-1
4.528732704E0,3.817050219E0,-5.163000107E0,-9.670500755E-1
4.531235175E0,3.886050224E0,-4.998000145E0,-1.099050045E0
4.533737636E0,3.919950247E0,-4.878000259E0,-1.192950010E0
4.536240097E0,3.879000187E0,-4.798950195E0,-1.264050007E0
4.538742558E0,3.874050140E0,-4.740000248E0,-1.324050069E0
4.541245019E0,4.003950119E0,-4.801950455E0,-1.351050019E0
4.543747481E0,4.198050022E0,-4.809000015E0,-1.377000093E0
4.546249958E0,4.432050228E0,-4.882950306E0,-1.492050052E0
4.548752344E0,4.732050419E0,-4.930950165E0,-1.585050106E0
4.551254803E0,5.041050434E0,-4.989000320E0,-1.693050027E0
4.553757260E0,5.364000320E0,-5.074950218E0,-1.738950133E0
4.556259721E0,5.616000175E0,-5.107950211E0,-1.729050040E0
4.558762183E0,5.862000465E0,-5.175000191E0,-1.750950098E0
4.561264625E0,6.099000454E0,-5.278050423E0,-1.695000052E0
4.563767087E0,6.355950356E0,-5.356950283E0,-1.639950037E0
4.566269549E0,6.612000465E0,-5.419950485E0,-1.542000055E0
4.568772011E0,6.802950382E0,-5.484000206E0,-1.477950096E0
4.571274521E0,7.009050369E0,-5.578050137E0,-1.377000093E0
4.573776983E0,7.123950481E0,-5.628000259E0,-1.272000074E0
4.576279445E0,7.243950367E0,-5.596950054E0,-1.092000008E0
4.578781906E0,7.246950150E0,-5.568000317E0,-9.289500713E-1
4.581284367E0,7.258950233E0,-5.596950054E0,-8.140500188E-1
4.583786828E0,7.255950451E0,-5.596950054E0,-7.090500593E-1
4.586289289E0,7.239000320E0,-5.620950222E0,-5.910000205E-1
4.588791750E0,7.183950424E0,-5.686050415E0,-5.599500537E-1
4.591294212E0,7.218000412E0,-5.683050156E0,-5.080500245E-1
4.593796445E0,7.198950291E0,-5.722050190E0,-4.410000145E-1
4.596299139E0,7.060050488E0,-5.829000473E0,-4.140000343E-1
4.598801372E0,6.928050518E0,-5.904000282E0,-4.050000310E-1
4.601304062E0,6.751050472E0,-5.962950230E0,-4.360500276E-1
4.603806295E0,6.451050282E0,-6.126000404E0,-4.290000200E-1
4.606309000E0,6.322050095E0,-6.201000214E0,-4.480500221E-1
4.608811464E0,6.283950329E0,-6.349050522E0,-5.790000558E-1
4.611313695E0,5.989050388E0,-6.517050266E0,-7.110000253E-1
4.613816385E0,5.758950233E0,-6.634050369E0,-8.280000687E-1
4.616318618E0,5.493000031E0,-6.723000526E0,-9.960000515E-1
4.618821091E0,5.280000210E0,-6.802050114E0,-1.116000056E0
4.621323553E0,4.939950466E0,-6.895050526E0,-1.153950095E0
4.623826029E0,4.677000046E0,-6.945000172E0,-1.116000056E0
4.626328491E0,4.734000206E0,-7.008000374E0,-1.171050072E0
4.628830952E0,4.480050087E0,-7.137000561E0,-1.161000013E0
4.631333414E0,4.344000340E0,-7.182000160E0,-1.068000078E0
4.633835884E0,4.231050014E0,-7.225950241E0,-1.000950098E0
4.636338346E0,4.123050213E0,-7.258950233E0,-9.480000734E-1
4.638840808E0,3.988950253E0,-7.261050224E0,-8.209500313E-1
4.641343256E0,4.083000183E0,-7.258950233E0,-5.869500041E-1
4.643845718E0,4.114050388E0,-7.369050503E0,-3.709500134E-1
4.646348180E0,4.084949970E0,-7.471950531E0,-1.000500023E-1
4.648850670E0,4.039950371E0,-7.615950584E0,3.030000031E-1
4.651353131E0,4.032000065E0,-7.755000591E0,6.430500150E-1
4.653855583E0,3.859950066E0,-7.969950199E0,8.929500580E-1
4.656358044E0,3.690000057E0,-8.203050613E0,1.228050113E0
4.658860505E0,3.418950081E0,-8.457000732E0,1.513050079E0
4.661362891E0,3.235050201E0,-8.811000824E0,1.780950069E0
4.663865351E0,2.863950253E0,-9.187050819E0,2.025000095E0
4.666367813E0,2.180999994E0,-9.589050293E0,2.326950073E0
4.668870274E0,1.458000064E0,-9.939000130E0,2.682000160E0
4.671372736E0,8.260500431E-1,-1.049205017E1,3.103050232E0
4.673875197E0,2.100000158E-2,-1.102605057E1,3.799950123E0
4.676377659E0,-7.999500632E-1,-1.155795097E1,4.765050411E0
4.678880116E0,-1.909050107E0,-1.215900040E1,6.067950249E0
4.681382578E0,-3.013050079E0,-1.291095066E1,7.476000309E0
4.683885040E0,-4.090050220E0,-1.355805111E1,8.868000031E0
4.686387521E0,-5.425050259E0,-1.426905060E1,9.985950470E0
4.688889982E0,-6.897000313E0,-1.506405067E1,1.044900036E1
4.691392443E0,-8.004000664E0,-1.564200115E1,1.042500019E1
4.693894904E0,-8.730000496E0,-1.544805050E1,9.754050255E0
4.696397365E0,-1.154100037E1,-1.598700047E1,8.293050766E0
4.698899827E0,-1.327305031E1,-1.631895065E1,6.688050270E0
4.701402319E0,-1.439100075E1,-1.608495140E1,4.861050129E0
4.703904551E0,-1.481805038E1,-1.583805084E1,3.052950144E0
4.706407241E0,-1.436505032E1,-1.592400074E1,1.738050103E0
4.708909464E0,-1.497300053E1,-1.575900078E1,4.110000134E-1
4.711412154E0,-1.616400146E1,-1.599405098E1,-5.700000525E-1
4.713914387E0,-1.658100128E1,-1.603905106E1,-7.590000629E-1
4.716417077E0,-1.746900177E1,-1.606800079E1,-5.340000391E-1
4.718919310E0,-1.846995163E1,-1.651095009E1,3.780000210E-1
4.721421770E0,-1.983795166E1,-1.691100121E1,1.791000128E0
4.723924231E0,-2.131995010E1,-1.709295082E1,3.280050039E0
4.726426693E0,-2.219205093E1,-1.706400108E1,4.198050022E0
4.728929154E0,-2.310195160E1,-1.706700134E1,4.258049965E0
4.731431616E0,-2.282205200E1,-1.678395081E1,4.116000175E0
4.733934078E0,-2.334900093E1,-1.623600006E1,3.175050259E0
4.736436555E0,-2.372205162E1,-1.562295055E1,2.224050045E0
4.738939017E0,-2.292705154E1,-1.492095089E1,1.534050107E0
4.741441479E0,-2.218695068E1,-1.402005100E1,8.230500221E-1
4.743943974E0,-2.092500114E1,-1.301400089E1,4.230000079E-1
4.746446435E0,-1.898700142E1,-1.188105011E1,3.820500076E-1
4.748948896E0,-1.668600082E1,-1.080105019E1,4.710000157E-1
4.751451333E0,-1.467600060E1,-9.754950523E0,3.559500277E-1
4.753953794E0,-1.274805069E1,-8.962050438E0,-3.139500022E-1
4.756456255E0,-1.108905029E1,-8.329950333E0,-7.210500240E-1
4.758958736E0,-9.510000229E0,-7.786050320E0,-9.769500494E-1
4.761461198E0,-7.855050564E0,-7.623000145E0,-1.243050098E0
4.763963651E0,-6.694050312E0,-7.194000244E0,-1.285950065E0
4.766466113E0,-5.772000313E0,-6.723000526E0,-1.108950019E0
4.768968575E0,-4.725000381E0,-6.610050201E0,-1.051050067E0
4.771470960E0,-3.922950268E0,-6.292050362E0,-1.108950019E0
4.773973419E0,-3.226050138E0,-6.061950207E0,-1.123050094E0
4.776475881E0,-2.661000013E0,-5.961000443E0,-1.255050063E0
4.778978342E0,-2.203050137E0,-5.941950321E0,-1.321950078E0
4.781480804E0,-1.723950028E0,-6.121050358E0,-1.272000074E0
4.783983265E0,-1.342950106E0,-6.496950150E0,-1.015050054E0
4.786485727E0,-8.959500194E-1,-7.117950439E0,-8.170500398E-1
4.788988194E0,-5.119500160E-1,-7.843050480E0,-6.250500083E-1
4.791490656E0,-3.795000166E-2,-8.536050797E0,-4.000500143E-1
4.793993118E0,5.980500579E-1,-9.265950203E0,-8.805000782E-2
4.796495579E0,1.345050097E0,-9.997050285E0,3.010500073E-1
4.798998041E0,2.008949995E0,-1.080405045E1,6.820500493E-1
4.801500502E0,2.598000050E0,-1.164405060E1,9.379500151E-1
4.804002963E0,3.130050182E0,-1.251405048E1,1.060050011E0
4.806505429E0,3.474000216E0,-1.346505070E1,1.081950068E0
4.809007890E0,3.879000187E0,-1.449195099E1,1.045950055E0
4.811510123E0,4.272000313E0,-1.553895092E1,1.048050046E0
4.814012582E0,4.891950130E0,-1.679804993E1,1.426950097E0
4.816515044E0,5.893050194E0,-1.849200058E1,3.058050156E0
4.819017505E0,7.915050507E0,-2.036205101E1,6.481950283E0
4.821519967E0,1.016100025E1,-2.231205177E1,1.042695045E1
4.824022428E0,1.188600063E1,-2.396400070E1,1.303800106E1
4.826524890E0,1.327200031E1,-2.510895157E1,1.560495090E1
4.829027332E0,1.392405033E1,-2.574105072E1,1.659195137E1
4.831529794E0,1.409895039E1,-2.586105156E1,1.595700073E1
4.834032256E0,1.321500015E1,-2.539905167E1,1.438095093E1
4.836534718E0,1.171305084E1,-2.442405128E1,1.232205105E1
4.839037190E0,9.912000656E0,-2.304705048E1,1.031505013E1
4.841539652E0,7.908000469E0,-2.136600113E1,8.527950287E0
4.844042114E0,6.271950245E0,-1.974705124E1,6.801000118E0
4.846544575E0,5.077050209E0,-1.816095161E1,5.191950321E0
4.849046992E0,4.531050205E0,-1.671000099E1,3.652050257E0
4.851549453E0,4.024950027E0,-1.546005058E1,2.257950068E0
4.854051914E0,3.750000238E0,-1.440300083E1,1.173000097E0
4.856554375E0,3.561000109E0,-1.349100018E1,5.760000348E-1
4.859056837E0,3.385950089E0,-1.237995052E1,1.860000044E-1
4.861559224E0,3.100950241E0,-1.126395035E1,-9.300000221E-2
4.864061760E0,2.806050062E0,-1.021695042E1,-2.389500141E-1
4.866564224E0,2.479950190E0,-9.178050041E0,-3.160500228E-1
4.869066685E0,2.164050102E0,-8.233950615E0,-3.709500134E-1
4.871569147E0,1.915050149E0,-7.387950420E0,-4.980000257E-1
4.874071603E0,1.651950121E0,-6.607950211E0,-5.410500169E-1
4.876574065E0,1.423950076E0,-5.884050369E0,-5.530500412E-1
4.879076424E0,1.126950026E0,-5.209050179E0,-5.340000391E-1
4.881578884E0,9.310500622E-1,-4.597949982E0,-5.460000038E-1
4.884081346E0,7.420500517E-1,-4.026000023E0,-4.980000257E-1
4.886583822E0,5.839500427E-1,-3.549000263E0,-4.810500145E-1
4.889086284E0,4.759500325E-1,-3.130050182E0,-4.930500090E-1
4.891588745E0,3.540000021E-1,-2.737050056E0,-5.340000391E-1
4.894091207E0,2.440500110E-1,-2.371050119E0,-5.770500302E-1
4.896593669E0,1.960500032E-1,-2.071050167E0,-6.490500569E-1
4.899096131E0,1.480500102E-1,-1.885050058E0,-6.559500098E-1
4.901598593E0,3.495000303E-2,-1.693050027E0,-6.820500493E-1
4.904101055E0,-4.800000042E-2,-1.521000028E0,-8.479500413E-1
4.906603516E0,-1.219500080E-1,-1.342950106E0,-8.640000224E-1
4.909105957E0,-2.080500126E-1,-1.269000053E0,-9.649500251E-1
4.911608418E0,-2.370000184E-1,-1.197000027E0,-1.080000043E0
4.914110851E0,-2.419500053E-1,-1.165950060E0,-1.152000070E0
4.916613313E0,-2.629500031E-1,-1.231050014E0,-1.288050056E0
4.919115770E0,-3.109500110E-1,-1.384050012E0,-1.465950012E0
4.921618002E0,-2.059500068E-1,-1.786050081E0,-1.612050056E0
4.924120466E0,-3.600000218E-2,-2.329950094E0,-1.891950130E0
4.926622928E0,9.300000221E-2,-2.895000219E0,-2.148000002E0
4.929125390E0,1.020000055E-1,-3.382050276E0,-2.421000004E0
4.931627851E0,5.400000140E-2,-3.870000124E0,-2.734950066E0
4.934130313E0,6.405000389E-2,-4.513950348E0,-3.007950068E0
4.936632774E0,1.020000055E-1,-5.202000141E0,-3.250050068E0
4.939135236E0,2.460000068E-1,-5.920050144E0,-3.465000153E0
4.941637698E0,3.370500207E-1,-6.675000191E0,-3.681000233E0
4.944140160E0,5.190000534E-1,-7.455000401E0,-3.877050161E0
4.946642622E0,6.940500140E-1,-8.263050079E0,-4.111950397E0
4.949145108E0,8.370000124E-1,-9.031050682E0,-4.348950386E0
4.951647569E0,9.760500193E-1,-9.919950485E0,-4.680000305E0
4.954150006E0,1.122000098E0,-1.076805019E1,-5.049000263E0
4.956652467E0,1.254000068E0,-1.159395027E1,-5.434050083E0
4.959154932E0,1.266000032E0,-1.243200016E1,-5.785950184E0
4.961657319E0,1.089000106E0,-1.319895077E1,-6.262950420E0
4.964159855E0,8.929500580E-1,-1.406100082E1,-6.478050232E0
4.966662242E0,9.330000281E-1,-1.485105038E1,-6.450000286E0
4.969164778E0,1.197000027E0,-1.543095112E1,-6.481050491E0
4.971667165E0,1.288050056E0,-1.592895031E1,-6.591000080E0
4.974169701E0,1.146000028E0,-1.635795021E1,-6.586050510E0
4.976672088E0,7.969500422E-1,-1.660395050E1,-6.499950409E0
4.979174548E0,6.289500594E-1,-1.657095146E1,-6.454050541E0
4.981677086E0,4.420500100E-1,-1.638705063E1,-6.505050182E0
4.984179473E0,-2.850000262E-1,-1.613504982E1,-6.274950504E0
4.986681932E0,-1.159050107E0,-1.576395035E1,-6.100050449E0
4.989184399E0,-1.849050045E0,-1.521300030E1,-6.402000427E0
4.991686860E0,-2.136000156E0,-1.473405075E1,-6.718050480E0
4.994189322E0,-1.897050142E0,-1.438395023E1,-6.603000164E0
4.996691760E0,-1.513050079E0,-1.395600033E1,-5.731050491E0
4.999194217E0,-1.243050098E0,-1.335405064E1,-4.777950287E0
5.001696679E0,-9.889500737E-1,-1.257600021E1,-4.087950230E0
5.004199141E0,-7.690500617E-1,-1.175205040E1,-3.565950155E0
5.006701603E0,-5.890500546E-1,-1.104300022E1,-3.223950148E0
5.009204065E0,-4.240500331E-1,-1.045200062E1,-2.862000227E0
5.011706527E0,-2.939999998E-1,-9.862050056E0,-2.562000036E0
5.014208988E0,-1.840500087E-1,-9.394950867E0,-2.383050203E0
5.016711449E0,-1.050000042E-1,-8.869050026E0,-2.256000042E0
5.019213910E0,-6.000000238E-2,-8.377950668E0,-2.164950132E0
5.021716371E0,2.100000158E-2,-7.980000496E0,-2.134050131E0
5.024218827E0,6.900000572E-2,-7.648950577E0,-2.152950048E0
5.026721289E0,8.295000345E-2,-7.317000389E0,-2.107050180E0
5.029223522E0,5.700000376E-2,-7.057950497E0,-2.071950197E0
5.031726004E0,7.605000585E-2,-6.841950417E0,-2.002050161E0
5.034228466E0,2.595000155E-2,-6.688950539E0,-1.891950130E0
5.036730927E0,-7.605000585E-2,-6.507000446E0,-1.825050116E0
5.039233376E0,-1.840500087E-1,-6.403950214E0,-1.762950063E0
5.041735837E0,-3.090000153E-1,-6.343950272E0,-1.762950063E0
5.044238293E0,-4.330500066E-1,-6.270000458E0,-1.789050102E0
5.046740754E0,-5.340000391E-1,-6.303000450E0,-1.786950111E0
5.049243216E0,-5.599500537E-1,-6.375000477E0,-1.774950027E0
5.051745678E0,-5.839500427E-1,-6.535950184E0,-1.767000079E0
5.054248140E0,-6.319500208E-1,-6.724950314E0,-1.807950139E0
5.056750602E0,-6.679500341E-1,-6.832950115E0,-1.846050143E0
5.059253064E0,-6.940500140E-1,-7.057950497E0,-1.903950095E0
5.061755526E0,-6.750000119E-1,-7.285050392E0,-1.930050135E0
5.064257987E0,-6.390000582E-1,-7.513050556E0,-1.939950109E0
5.066760434E0,-7.129500508E-1,-7.783950329E0,-1.995000124E0
5.069262895E0,-7.849500179E-1,-7.963050365E0,-1.936950088E0
5.071765281E0,-8.310000300E-1,-8.196000099E0,-1.972950101E0
5.074267741E0,-8.959500194E-1,-8.398950577E0,-1.981050134E0
5.076770187E0,-9.889500737E-1,-8.667000771E0,-1.918050051E0
5.079272649E0,-1.044000030E0,-8.863950729E0,-1.851000071E0
5.081775106E0,-1.055999994E0,-9.072000504E0,-1.827000141E0
5.084277645E0,-1.135050058E0,-9.256950378E0,-1.795950055E0
5.086780031E0,-1.252050042E0,-9.448050499E0,-1.755000114E0
5.089282458E0,-1.330950022E0,-9.697050095E0,-1.686000109E0
5.091784919E0,-1.453950047E0,-9.955950737E0,-1.662000060E0
5.094287381E0,-1.633050084E0,-1.005195045E1,-1.626000047E0
5.096789842E0,-1.753050089E0,-1.024095058E1,-1.606950045E0
5.099292304E0,-1.726950049E0,-1.039395046E1,-1.497000098E0
5.101794766E0,-1.702950120E0,-1.056705093E1,-1.417950034E0
5.104297228E0,-1.743000031E0,-1.070295048E1,-1.309950113E0
5.106799690E0,-1.777050138E0,-1.083495045E1,-1.261950016E0
5.109302152E0,-1.771950126E0,-1.093500042E1,-1.164000034E0
5.111804614E0,-1.827000141E0,-1.093500042E1,-1.149000049E0
5.114306844E0,-1.818000078E0,-1.089705086E1,-1.135050058E0
5.116809535E0,-1.813050032E0,-1.093500042E1,-1.099050045E0
5.119311729E0,-1.755000114E0,-1.104105091E1,-1.036949992E0
5.121814419E0,-1.741050124E0,-1.109400082E1,-9.769500494E-1
5.124316897E0,-1.759950042E0,-1.115100098E1,-9.720000625E-1
5.126819359E0,-1.794000030E0,-1.116300011E1,-9.270000458E-1
5.129321821E0,-1.786050081E0,-1.116495037E1,-8.089500666E-1
5.131824282E0,-1.765050054E0,-1.111305046E1,-7.330500484E-1
5.134326744E0,-1.822050095E0,-1.103805065E1,-6.730500460E-1
5.136828974E0,-1.839000106E0,-1.096395016E1,-5.839500427E-1
5.139331434E0,-1.771950126E0,-1.094505024E1,-5.509500504E-1
5.141833895E0,-1.693050027E0,-1.095000076E1,-6.109500527E-1
5.144336357E0,-1.681050062E0,-1.087800026E1,-7.330500484E-1
5.146838819E0,-1.624050021E0,-1.089495087E1,-1.165950060E0
5.149341265E0,-1.518000126E0,-1.095495033E1,-2.287050009E0
5.151843727E0,-1.446000099E0,-1.098105049E1,-3.049050093E0
5.154346178E0,-1.465950012E0,-1.103400040E1,-3.597000122E0
5.156848640E0,-1.509000063E0,-1.108200073E1,-3.874950171E0
