"Time (s)","Gyroscope x (rad/s)","Gyroscope y (rad/s)","Gyroscope z (rad/s)"
4.933679400E-2,-4.867500067E-2,8.079500198E-1,6.098124981E-1
5.183664200E-2,-3.272499889E-2,7.782499790E-1,6.598625183E-1
5.433910100E-2,-1.457499992E-2,7.473124862E-1,7.034500241E-1
5.684158500E-2,-6.874999963E-4,7.239375114E-1,7.418124676E-1
5.934404600E-2,1.374999993E-3,7.079874873E-1,7.705500126E-1
6.184650800E-2,1.374999993E-3,6.941000223E-1,7.907624841E-1
6.434898600E-2,4.537499975E-3,6.792500019E-1,8.087750077E-1
6.685144800E-2,5.637499969E-3,6.749874949E-1,8.237624764E-1
6.935390900E-2,-1.787499990E-3,6.738874912E-1,8.428750038E-1
7.185637100E-2,-1.773750037E-2,6.844750047E-1,8.588249683E-1
7.435883200E-2,-3.368749842E-2,6.994624734E-1,8.769749999E-1
7.686129400E-2,-5.609999970E-2,7.048249841E-1,8.896250129E-1
7.936375600E-2,-7.411249727E-2,7.048249841E-1,8.971874714E-1
8.186624600E-2,-9.019999951E-2,7.100499868E-1,8.949875236E-1
8.436870800E-2,-1.093124971E-1,7.324625254E-1,8.896250129E-1
8.687119700E-2,-1.315875053E-1,7.760499716E-1,8.790374994E-1
8.937365900E-2,-1.582625061E-1,8.388875127E-1,8.758749962E-1
9.187612000E-2,-1.912624985E-1,9.080500007E-1,8.727124929E-1
9.437856000E-2,-2.242625058E-1,9.792749882E-1,8.673499823E-1
9.688102100E-2,-2.624875009E-1,1.046375036E0,8.662499785E-1
9.938348200E-2,-3.029125035E-1,1.112375021E0,8.727124929E-1
1.018859370E-1,-3.466374874E-1,1.165587544E0,8.769749999E-1
1.043883990E-1,-3.933874965E-1,1.206012487E0,8.833000064E-1
1.068908790E-1,-4.380750060E-1,1.231587529E0,8.949875236E-1
1.093933410E-1,-4.764375091E-1,1.247537494E0,9.057124853E-1
1.118958030E-1,-5.126000047E-1,1.262387514E0,9.151999950E-1
1.143982650E-1,-5.455999970E-1,1.279437542E0,9.259250164E-1
1.169007360E-1,-5.754374862E-1,1.301712513E0,9.365124702E-1
1.194031970E-1,-5.902875066E-1,1.324125051E0,9.450374842E-1
1.219056580E-1,-6.010124683E-1,1.350800037E0,9.641500115E-1
1.244081190E-1,-5.956500173E-1,1.378437519E0,9.822999835E-1
1.269105800E-1,-5.817624927E-1,1.402912498E0,1.008837461E0
1.294130410E-1,-5.572875142E-1,1.418862462E0,1.040737510E0
1.319155030E-1,-5.105375051E-1,1.341174960E0,1.132312536E0
1.344179650E-1,-4.499000013E-1,1.291124940E0,1.237637520E0
1.369204270E-1,-3.796375096E-1,1.303912520E0,1.297312498E0
1.394228880E-1,-3.062124848E-1,1.319862485E0,1.326050043E0
1.419253500E-1,-2.305874974E-1,1.336912513E0,1.350525022E0
1.444278310E-1,-1.454750001E-1,1.367712498E0,1.372799993E0
1.469302920E-1,-5.389999971E-2,1.414600015E0,1.389850020E0
1.494327800E-1,3.973750025E-2,1.457087517E0,1.412262440E0
1.519352410E-1,1.322750002E-1,1.499712467E0,1.434537530E0
1.544377020E-1,2.205500007E-1,1.532712460E0,1.459012508E0
1.569401630E-1,3.025000095E-1,1.552924991E0,1.478262544E0
1.594426250E-1,3.727625012E-1,1.552924991E0,1.497375011E0
1.619450870E-1,4.302375019E-1,1.539037466E0,1.511124969E0
1.644475970E-1,4.706625044E-1,1.518824935E0,1.516487479E0
1.669500590E-1,4.984374940E-1,1.493387461E0,1.519649982E0
1.694525210E-1,5.121874809E-1,1.480599999E0,1.522949934E0
1.719549830E-1,5.196124911E-1,1.482662439E0,1.529274940E0
1.744574440E-1,5.175499916E-1,1.498612523E0,1.537799954E0
1.769599050E-1,5.079249740E-1,1.532712460E0,1.544124961E0
1.794623660E-1,4.973374903E-1,1.581662536E0,1.550587535E0
1.819648310E-1,4.780874848E-1,1.641199946E0,1.559112549E0
1.844672920E-1,4.536125064E-1,1.700875044E0,1.563374996E0
1.869697590E-1,4.291374981E-1,1.759449959E0,1.563374996E0
1.894722210E-1,4.014999866E-1,1.817887545E0,1.565437436E0
1.919746830E-1,3.707000017E-1,1.872200012E0,1.564337492E0
1.944771550E-1,3.397625089E-1,1.923212528E0,1.563374996E0
1.969796170E-1,3.089624941E-1,1.977524996E0,1.556912541E0
1.994820790E-1,2.727999985E-1,2.023312569E0,1.553750038E0
2.019844630E-1,2.398000062E-1,2.068000078E0,1.552649975E0
2.044869130E-1,2.046000063E-1,2.102099895E0,1.555950046E0
2.069894510E-1,1.673374921E-1,2.132900000E0,1.551687479E0
2.094918380E-1,1.333750039E-1,2.154212475E0,1.550587535E0
2.119943650E-1,9.817499667E-2,2.165899992E0,1.549487472E0
2.144967520E-1,6.847500056E-2,2.174424887E0,1.551687479E0
2.169992600E-1,4.069999978E-2,2.174424887E0,1.552649975E0
2.195016460E-1,1.306249946E-2,2.151050091E0,1.553750038E0
2.220041830E-1,-1.347499993E-2,2.079687595E0,1.545225024E0
2.245065690E-1,-3.478749841E-2,2.013687372E0,1.550587535E0
2.270091060E-1,-4.537500069E-2,1.958412528E0,1.570799947E0
2.295115690E-1,-5.816249922E-2,1.889250040E0,1.595275044E0
2.320140310E-1,-6.668750197E-2,1.810462475E0,1.624012470E0
2.345164920E-1,-7.837499678E-2,1.730712533E0,1.642024994E0
2.370188770E-1,-8.910000324E-2,1.656187534E0,1.654812455E0
2.395214130E-1,-1.007874981E-1,1.576300025E0,1.661275029E0
2.420238100E-1,-1.146750003E-1,1.492287517E0,1.663337469E0
2.445263460E-1,-1.284250021E-1,1.419962525E0,1.664437532E0
2.470288100E-1,-1.454750001E-1,1.358224988E0,1.669800043E0
2.495312580E-1,-1.636250019E-1,1.293324947E0,1.671862483E0
2.520337190E-1,-1.838375032E-1,1.239012480E0,1.665537477E0
2.545361810E-1,-2.083124965E-1,1.195425034E0,1.660174966E0
2.570386420E-1,-2.305874974E-1,1.171912551E0,1.655912519E0
2.595411030E-1,-2.496999949E-1,1.161324978E0,1.647387505E0
2.620435590E-1,-2.763749957E-1,1.147437453E0,1.637762547E0
2.645460200E-1,-3.071750104E-1,1.128324986E0,1.626075029E0
2.670484810E-1,-3.412750065E-1,1.108112454E0,1.614387512E0
2.695508680E-1,-3.711124957E-1,1.086799979E0,1.603799939E0
2.720534040E-1,-4.041124880E-1,1.072912455E0,1.589912534E0
2.745558680E-1,-4.423374832E-1,1.059162498E0,1.575062513E0
2.770583300E-1,-4.786374867E-1,1.042112470E0,1.553750038E0
2.795607140E-1,-5.179625154E-1,1.030424953E0,1.533537507E0
2.820631740E-1,-5.467000008E-1,1.027262449E0,1.514425039E0
2.845656400E-1,-5.722749829E-1,1.035787463E0,1.503700018E0
2.870681020E-1,-5.967500210E-1,1.033587456E0,1.498474956E0
2.895705630E-1,-6.201249957E-1,1.018737435E0,1.496274948E0
2.920730390E-1,-6.456999779E-1,9.825749993E-1,1.493112445E0
2.945755000E-1,-6.701750159E-1,9.303249717E-1,1.486649990E0
2.970779910E-1,-6.946499944E-1,8.685874939E-1,1.476062536E0
2.995804530E-1,-7.169250250E-1,8.016250134E-1,1.463274956E0
3.020829150E-1,-7.328749895E-1,7.345250249E-1,1.448424935E0
3.045853770E-1,-7.478625178E-1,6.653624773E-1,1.430274963E0
3.070878390E-1,-7.584499717E-1,6.026625037E-1,1.411162496E0
3.095903010E-1,-7.616124749E-1,5.472499728E-1,1.384487510E0
3.120927620E-1,-7.627124786E-1,4.929375052E-1,1.355749965E0
3.145952230E-1,-7.647749782E-1,4.450874925E-1,1.319587469E0
3.170976840E-1,-7.616124749E-1,4.024625123E-1,1.283424973E0
3.196001450E-1,-7.573499680E-1,3.727625012E-1,1.246162534E0
3.221026060E-1,-7.510250211E-1,3.525500000E-1,1.201475024E0
3.246050680E-1,-7.510250211E-1,3.366000056E-1,1.152524948E0
3.271076060E-1,-7.521250248E-1,3.258749843E-1,1.105774999E0
3.296099930E-1,-7.530875206E-1,3.184500039E-1,1.058887482E0
3.321124580E-1,-7.478625178E-1,3.152875006E-1,1.005674958E0
3.346149190E-1,-7.488250136E-1,3.195500076E-1,9.556249976E-1
3.371173520E-1,-7.456625104E-1,3.227125108E-1,9.057124853E-1
3.396198130E-1,-7.456625104E-1,3.195500076E-1,8.545625210E-1
3.421222650E-1,-7.445625067E-1,3.205125034E-1,8.109750152E-1
3.446248030E-1,-7.436000109E-1,3.195500076E-1,7.694500089E-1
3.471271900E-1,-7.382375002E-1,3.290374875E-1,7.332875133E-1
3.496297310E-1,-7.328749895E-1,3.525500000E-1,7.002875209E-1
3.521321180E-1,-7.265499830E-1,3.737249970E-1,6.726499796E-1
3.546346540E-1,-7.148625255E-1,4.003999829E-1,6.470749974E-1
3.571370410E-1,-7.020750046E-1,4.354625046E-1,6.300249696E-1
3.596395110E-1,-6.881874800E-1,4.717625082E-1,6.215000153E-1
3.621419720E-1,-6.626124978E-1,5.110874772E-1,6.257625222E-1
3.646444340E-1,-6.318125129E-1,5.440874696E-1,6.353874803E-1
3.671468950E-1,-5.999125242E-1,5.589374900E-1,6.481750011E-1
3.696493570E-1,-5.689749718E-1,5.674625039E-1,6.661875248E-1
3.721518190E-1,-5.350124836E-1,5.696625113E-1,6.906625032E-1
3.746542810E-1,-5.009124875E-1,5.654000044E-1,7.108749747E-1
3.771567430E-1,-4.690124989E-1,5.578374863E-1,7.258625031E-1
3.796592050E-1,-4.371125102E-1,5.557749867E-1,7.512999773E-1
3.821616670E-1,-4.041124880E-1,5.515124798E-1,7.748125196E-1
3.846641320E-1,-3.700124919E-1,5.472499728E-1,7.950249910E-1
3.871665930E-1,-3.284874856E-1,5.611374974E-1,8.045125008E-1
3.896690400E-1,-2.827000022E-1,5.930374861E-1,7.822374701E-1
3.921715010E-1,-2.305874974E-1,6.388249993E-1,7.279250026E-1
3.946739860E-1,-1.656875014E-1,7.079874873E-1,6.331874728E-1
3.971764480E-1,-8.593750000E-2,7.803124785E-1,4.980250001E-1
3.996789100E-1,-6.049999967E-3,7.706875205E-1,3.448500037E-1
4.021813820E-1,5.678749830E-2,6.579374671E-1,2.149125040E-1
4.046838440E-1,9.927500039E-2,5.036625266E-1,1.181124970E-1
4.071863200E-1,1.354375035E-1,3.716624975E-1,4.784999788E-2
4.096887810E-1,1.758625060E-1,3.110249937E-1,-3.162499983E-3
4.121912420E-1,2.195875049E-1,3.258749843E-1,-5.431250110E-2
4.146937030E-1,2.685374916E-1,3.770250082E-1,-9.996250272E-2
4.171961640E-1,3.121249974E-1,4.589749873E-1,-1.372250021E-1
4.196986260E-1,3.493874967E-1,5.663625002E-1,-1.639000028E-1
4.222010880E-1,3.877499998E-1,6.599999666E-1,-1.776500046E-1
4.247035500E-1,4.239124954E-1,7.441499829E-1,-1.841125041E-1
4.272060120E-1,4.675000012E-1,8.292624950E-1,-1.830125004E-1
4.297084740E-1,5.110874772E-1,8.952624798E-1,-1.766874939E-1
4.322109350E-1,5.537124872E-1,9.442124963E-1,-1.692624986E-1
4.347134060E-1,5.963374972E-1,9.686874747E-1,-1.616999954E-1
4.372158670E-1,6.388249993E-1,9.825749993E-1,-1.564749926E-1
4.397183280E-1,6.835125089E-1,1.001687527E0,-1.531749964E-1
4.422207900E-1,7.282000184E-1,1.031525016E0,-1.500124931E-1
4.447232520E-1,7.728874683E-1,1.069749951E0,-1.489125043E-1
4.472257180E-1,8.112499714E-1,1.093124986E0,-1.553750038E-1
4.497281800E-1,8.496124744E-1,1.099587440E0,-1.733874977E-1
4.522306420E-1,8.985624909E-1,1.127225041E0,-1.968999952E-1
4.547331030E-1,9.697874784E-1,1.126124978E0,-2.139499933E-1
4.572355640E-1,1.066725016E0,1.065487504E0,-2.063875049E-1
4.597380250E-1,1.178375006E0,9.697874784E-1,-1.819124967E-1
4.622404860E-1,1.297587514E0,9.112125039E-1,-1.500124931E-1
4.647429470E-1,1.405112505E0,9.208375216E-1,-1.277374923E-1
4.672454090E-1,1.485962510E0,9.208375216E-1,-1.223749965E-1
4.697478570E-1,1.536975026E0,8.782125115E-1,-1.340624988E-1
4.722503190E-1,1.553062439E0,8.196374774E-1,-1.596374959E-1
4.747527810E-1,1.534912467E0,7.590000033E-1,-1.978625059E-1
4.772552430E-1,1.496549964E0,6.792500019E-1,-2.393874973E-1
4.797576910E-1,1.449800014E0,5.887749791E-1,-2.734875083E-1
4.822601420E-1,1.408275008E0,4.919750094E-1,-3.096500039E-1
4.847626030E-1,1.390125036E0,4.003999829E-1,-3.682250082E-1
4.872650640E-1,1.379537463E0,3.440249860E-1,-4.587000012E-1
4.897675060E-1,1.382699966E0,2.791250050E-1,-5.693874955E-1
4.922699670E-1,1.393424988E0,2.003374994E-1,-6.639875174E-1
4.947722000E-1,1.394387484E0,1.269125044E-1,-7.151374817E-1
4.972748910E-1,1.378437519E0,7.259999961E-2,-7.385125160E-1
4.997771230E-1,1.333750010E0,1.086249948E-2,-7.407125235E-1
5.022798140E-1,1.254962444E0,-6.462500244E-2,-7.396125197E-1
5.047822770E-1,1.141112447E0,-1.391499937E-1,-7.353500128E-1
5.072847390E-1,9.996249676E-1,-1.945624948E-1,-7.257249951E-1
5.097872000E-1,8.388875127E-1,-1.966249943E-1,-7.119749784E-1
5.122896710E-1,6.441875100E-1,-1.880999953E-1,-6.927250028E-1
5.147921320E-1,4.057624936E-1,-2.285249978E-1,-6.715499759E-1
5.172945940E-1,1.504250020E-1,-2.455749959E-1,-6.650875211E-1
5.197970700E-1,-1.028499976E-1,-2.264624983E-1,-6.650875211E-1
5.222995310E-1,-3.561249971E-1,-1.934625059E-1,-6.725124717E-1
5.248019920E-1,-6.095374823E-1,-1.285624951E-1,-6.917625070E-1
5.273044280E-1,-8.808249831E-1,2.749999985E-4,-7.385125160E-1
5.298068900E-1,-1.150050044E0,1.289750040E-1,-7.853999734E-1
5.323093520E-1,-1.408687472E0,1.769624949E-1,-8.193625212E-1
5.348118140E-1,-1.651374936E0,1.843875051E-1,-8.503000140E-1
5.373142760E-1,-1.866287470E0,2.194499969E-1,-8.801375031E-1
5.398167480E-1,-2.056725025E0,2.758249938E-1,-9.109374881E-1
5.423192090E-1,-2.235612392E0,3.599750102E-1,-9.385749698E-1
5.448216700E-1,-2.402674913E0,4.844124913E-1,-9.684125185E-1
5.473241310E-1,-2.561212540E0,6.249374747E-1,-9.950875044E-1
5.498265920E-1,-2.706000090E0,7.643625140E-1,-1.021625042E0
5.523288250E-1,-2.836899996E0,8.835750222E-1,-1.049262524E0
5.548312840E-1,-2.940025091E0,9.814749956E-1,-1.082262516E0
5.573337460E-1,-3.027337551E0,1.086799979E0,-1.118425012E0
5.598362070E-1,-3.098700047E0,1.210274935E0,-1.163112521E0
5.623386690E-1,-3.150812387E0,1.333750010E0,-1.214262486E0
5.648411300E-1,-3.183812380E0,1.452962518E0,-1.278062463E0
5.673435920E-1,-3.198662519E0,1.559249997E0,-1.353687525E0
5.698460540E-1,-3.198662519E0,1.655087471E0,-1.437700033E0
5.723485160E-1,-3.181612492E0,1.734974980E0,-1.528174996E0
5.748509780E-1,-3.148612499E0,1.801937461E0,-1.631437540E0
5.773534300E-1,-3.095400095E0,1.872200012E0,-1.739925027E0
5.798561210E-1,-3.009325027E0,1.935037494E0,-1.849512458E0
5.823583440E-1,-2.893275023E0,1.992512465E0,-1.970924973E0
5.848610350E-1,-2.761275053E0,2.038162470E0,-2.086837530E0
5.873632620E-1,-2.599575043E0,2.078587532E0,-2.183774948E0
5.898659530E-1,-2.415462494E0,2.099900007E0,-2.250737429E0
5.923681850E-1,-2.228187561E0,2.060575008E0,-2.285937548E0
5.948708760E-1,-2.056725025E0,1.948787451E0,-2.306149960E0
5.973731090E-1,-1.904649973E0,1.800837517E0,-2.322099924E0
5.998757990E-1,-1.768387437E0,1.643399954E0,-2.342312574E0
6.023782620E-1,-1.632125020E0,1.501912475E0,-2.366787434E0
6.048804930E-1,-1.506587505E0,1.403874993E0,-2.396625042E0
6.073831840E-1,-1.398100019E0,1.350662470E0,-2.428524971E0
6.098854160E-1,-1.307624936E0,1.313537478E0,-2.465787411E0
6.123881120E-1,-1.238462448E0,1.279437542E0,-2.501950026E0
6.148903440E-1,-1.196937442E0,1.262387514E0,-2.533849955E0
6.173928040E-1,-1.180987477E0,1.260324955E0,-2.566849947E0
6.198952690E-1,-1.186212540E0,1.268849969E0,-2.595587492E0
6.223977310E-1,-1.209725022E0,1.280537486E0,-2.626387596E0
6.249001930E-1,-1.247949958E0,1.291124940E0,-2.663650036E0
6.274026400E-1,-1.299100041E0,1.298550010E0,-2.692387581E0
6.299051020E-1,-1.354375005E0,1.301712513E0,-2.716862440E0
6.324075450E-1,-1.417212486E0,1.302812457E0,-2.749862432E0
6.349100070E-1,-1.486374974E0,1.310237527E0,-2.781762600E0
6.374124690E-1,-1.559800029E0,1.319862485E0,-2.812700033E0
6.399149310E-1,-1.634325027E0,1.333750010E0,-2.846800089E0
6.424173920E-1,-1.708850026E0,1.352862477E0,-2.879800081E0
6.449198530E-1,-1.778975010E0,1.374174953E0,-2.905237436E0
6.474223140E-1,-1.844012499E0,1.392187476E0,-2.932874918E0
6.499247750E-1,-1.905612469E0,1.409237504E0,-2.951025009E0
6.524272370E-1,-1.963087440E0,1.418862462E0,-2.963812590E0
6.549296990E-1,-2.009974957E0,1.422024965E0,-2.971237421E0
6.574321460E-1,-2.056725025E0,1.415699959E0,-2.971237421E0
6.599346080E-1,-2.104712486E0,1.400712490E0,-2.961612463E0
6.624370700E-1,-2.154762506E0,1.377337456E0,-2.946762562E0
6.649395360E-1,-2.206875086E0,1.354925036E0,-2.924487591E0
6.674419970E-1,-2.255825043E0,1.332649946E0,-2.898912430E0
6.699444580E-1,-2.302574873E0,1.313537478E0,-2.867974997E0
6.724469380E-1,-2.345200062E0,1.302812457E0,-2.839237452E0
6.749493990E-1,-2.385624886E0,1.295387506E0,-2.812700033E0
6.774518660E-1,-2.420687437E0,1.297587514E0,-2.781762600E0
6.799543280E-1,-2.449424982E0,1.305974960E0,-2.760587454E0
6.824567900E-1,-2.473900080E0,1.318762541E0,-2.740375042E0
6.849592470E-1,-2.490949869E0,1.335812449E0,-2.727587461E0
6.874617090E-1,-2.497412443E0,1.358224988E0,-2.721124887E0
6.899641710E-1,-2.495212555E0,1.379400015E0,-2.716862440E0
6.924666320E-1,-2.489987373E0,1.402912498E0,-2.714799881E0
6.949690930E-1,-2.482424974E0,1.422024965E0,-2.709437370E0
6.974715540E-1,-2.469637394E0,1.439074993E0,-2.707375050E0
6.999740150E-1,-2.455887556E0,1.456125021E0,-2.705174923E0
7.024764760E-1,-2.437737465E0,1.474137545E0,-2.707375050E0
7.049789380E-1,-2.422887564E0,1.491187453E0,-2.711637497E0
7.074814000E-1,-2.405837536E0,1.507137537E0,-2.717962503E0
7.099838760E-1,-2.385624886E0,1.529549956E0,-2.726487398E0
7.124863380E-1,-2.368575096E0,1.558287501E0,-2.726487398E0
7.149888000E-1,-2.359087467E0,1.587987542E0,-2.716862440E0
7.174912620E-1,-2.351525068E0,1.613562465E0,-2.703112602E0
7.199937230E-1,-2.353724957E0,1.632812500E0,-2.689224958E0
7.224961750E-1,-2.353724957E0,1.639137506E0,-2.676437378E0
7.249986360E-1,-2.354825020E0,1.640237451E0,-2.661587477E0
7.275011110E-1,-2.356887579E0,1.634874940E0,-2.645637512E0
7.300035720E-1,-2.362250090E0,1.627449989E0,-2.626387596E0
7.325060340E-1,-2.372837543E0,1.620025039E0,-2.600950003E0
7.350084210E-1,-2.384525061E0,1.612462521E0,-2.569050074E0
7.375109570E-1,-2.396212578E0,1.613562465E0,-2.537012577E0
7.400134210E-1,-2.405837536E0,1.610399961E0,-2.498787403E0
7.425158820E-1,-2.404737473E0,1.607237458E0,-2.457262516E0
7.450183440E-1,-2.404737473E0,1.598712444E0,-2.411474943E0
7.475208050E-1,-2.396212578E0,1.577399969E0,-2.360462427E0
7.500232670E-1,-2.383562565E0,1.547562480E0,-2.303950071E0
7.525257190E-1,-2.365412474E0,1.513599992E0,-2.239049911E0
7.550281800E-1,-2.338875055E0,1.481562495E0,-2.167824984E0
7.575306010E-1,-2.298312426E0,1.452962518E0,-2.092200041E0
7.600330620E-1,-2.246200085E0,1.426287532E0,-2.014512539E0
7.625355130E-1,-2.184462547E0,1.399749994E0,-1.935724974E0
7.650379750E-1,-2.106775045E0,1.369912505E0,-1.857074976E0
7.675404370E-1,-2.017400026E0,1.336912513E0,-1.785712481E0
7.700429090E-1,-1.921700001E0,1.298550010E0,-1.723974943E0
7.725453710E-1,-1.822700024E0,1.269812465E0,-1.665537477E0
7.750478330E-1,-1.718337536E0,1.241075039E0,-1.618649960E0
7.775502950E-1,-1.615212440E0,1.219900012E0,-1.579324961E0
7.800527560E-1,-1.517174959E0,1.200649977E0,-1.544124961E0
7.825552170E-1,-1.424637437E0,1.178375006E0,-1.521849990E0
7.850576780E-1,-1.337324977E0,1.157062531E0,-1.507962465E0
7.875601390E-1,-1.261837482E0,1.137949944E0,-1.503700018E0
7.900625260E-1,-1.199000001E0,1.128324986E0,-1.505900025E0
7.925649850E-1,-1.145787477E0,1.129425049E0,-1.511124969E0
7.950674520E-1,-1.107562542E0,1.137949944E0,-1.517587543E0
7.975699130E-1,-1.075662494E0,1.145375013E0,-1.527074933E0
8.000723750E-1,-1.055312514E0,1.149637461E0,-1.532437444E0
8.025748410E-1,-1.050087452E0,1.166687489E0,-1.536700010E0
8.050773030E-1,-1.058612466E0,1.196387529E0,-1.543025017E0
8.075797650E-1,-1.077725053E0,1.235849977E0,-1.550587535E0
8.100822600E-1,-1.103299975E0,1.287962437E0,-1.565437436E0
8.125847220E-1,-1.139462471E0,1.345437527E0,-1.579324961E0
8.150871840E-1,-1.174525023E0,1.410337448E0,-1.593075037E0
8.175896610E-1,-1.212887526E0,1.467812538E0,-1.610124946E0
8.200921220E-1,-1.252212524E0,1.516762495E0,-1.628275037E0
8.225945830E-1,-1.291674972E0,1.555124998E0,-1.637762547E0
8.250970630E-1,-1.334162474E0,1.582762480E0,-1.642024994E0
8.275995240E-1,-1.374587536E0,1.608337522E0,-1.639962435E0
8.301019750E-1,-1.412950039E0,1.630612493E0,-1.626075029E0
8.326044370E-1,-1.453374982E0,1.644500017E0,-1.600499988E0
8.351068990E-1,-1.491737485E0,1.651924968E0,-1.566537499E0
8.376094370E-1,-1.525699973E0,1.650825024E0,-1.513324976E0
8.401118230E-1,-1.557737470E0,1.642300010E0,-1.446225047E0
8.426143600E-1,-1.583174944E0,1.623187542E0,-1.367437482E0
8.451167470E-1,-1.602424979E0,1.596512437E0,-1.274899960E0
8.476192830E-1,-1.617275000E0,1.563512444E0,-1.178099990E0
8.501216700E-1,-1.631162524E0,1.524187446E0,-1.065212488E0
8.526241290E-1,-1.643812537E0,1.476337433E0,-9.459999800E-1
8.551266060E-1,-1.654537439E0,1.422024965E0,-8.204625249E-1
8.576290670E-1,-1.667325020E0,1.364549994E0,-6.938250065E-1
8.601315240E-1,-1.677912474E0,1.313537478E0,-5.671874881E-1
8.626339850E-1,-1.694962502E0,1.268849969E0,-4.416500032E-1
8.651364470E-1,-1.716274977E0,1.228287458E0,-3.246375024E-1
8.676388990E-1,-1.739650011E0,1.194324970E0,-2.106499970E-1
8.701413610E-1,-1.773749948E0,1.161324978E0,-1.021625027E-1
8.726438230E-1,-1.808812499E0,1.135749936E0,-4.262499977E-3
8.751462750E-1,-1.851437449E0,1.111274958E0,8.415000141E-2
8.776487370E-1,-1.895025015E0,1.099587440E0,1.618375033E-1
8.801511980E-1,-1.942875028E0,1.100687504E0,2.287999988E-1
8.826536590E-1,-1.986600041E0,1.112375021E0,2.820124924E-1
8.851561200E-1,-2.029087543E0,1.131487489E0,3.235374987E-1
8.876585810E-1,-2.070612431E0,1.155962467E0,3.554374874E-1
8.901610420E-1,-2.104712486E0,1.187862515E0,3.745499849E-1
8.926635040E-1,-2.133450031E0,1.232550025E0,3.830749989E-1
8.951659660E-1,-2.157924891E0,1.285762548E0,3.841750026E-1
8.976684280E-1,-2.180200100E0,1.343237519E0,3.767499924E-1
9.001708710E-1,-2.192987442E0,1.401812434E0,3.619000018E-1
9.026733330E-1,-2.200412512E0,1.461349964E0,3.426499963E-1
9.051758140E-1,-2.195187569E0,1.524187446E0,3.150124848E-1
9.076782750E-1,-2.179237604E0,1.593349934E0,2.884750068E-1
9.101807360E-1,-2.144037485E0,1.677500010E0,2.564375103E-1
9.126831880E-1,-2.096187592E0,1.748724937E0,2.128500044E-1
9.151856490E-1,-2.040775061E0,1.809362531E0,1.607374996E-1
9.176881100E-1,-1.986600041E0,1.853087544E0,1.095874980E-1
9.201905960E-1,-1.933387518E0,1.882787466E0,5.967500061E-2
9.226930530E-1,-1.886500001E0,1.905200005E0,1.594999991E-2
9.251955150E-1,-1.838649988E0,1.944525003E0,-1.911249943E-2
9.276979770E-1,-1.790799975E0,1.991412520E0,-5.101250112E-2
9.302004390E-1,-1.745012522E0,2.037199974E0,-7.232499868E-2
9.327029010E-1,-1.702387452E0,2.073362589E0,-8.731249720E-2
9.352053620E-1,-1.650274992E0,2.107325077E0,-9.363749623E-2
9.377078230E-1,-1.597062469E0,2.128637552E0,-9.157499671E-2
9.402102840E-1,-1.543849945E0,2.134000063E0,-7.768750191E-2
9.427127450E-1,-1.486374974E0,2.125474930E0,-5.527500063E-2
9.452152060E-1,-1.426837444E0,2.094675064E0,-2.873750031E-2
9.477176540E-1,-1.367162466E0,2.043524981E0,1.099999994E-3
9.502198870E-1,-1.304462552E0,1.979725003E0,4.358749837E-2
9.527223460E-1,-1.244787455E0,1.909462452E0,9.679999948E-2
9.552248030E-1,-1.187312484E0,1.839200020E0,1.575749964E-1
9.577274950E-1,-1.135200024E0,1.767837524E0,2.245374918E-1
9.602297230E-1,-1.083087444E0,1.692350030E0,3.001624942E-1
9.627324130E-1,-1.027675033E0,1.624287486E0,3.799124956E-1
9.652346460E-1,-9.724000096E-1,1.554024935E0,4.650250077E-1
9.677373360E-1,-9.255124927E-1,1.486925006E0,5.523374677E-1
9.702395690E-1,-8.776624799E-1,1.416662455E0,6.353874803E-1
9.727420290E-1,-8.340749741E-1,1.354925036E0,7.140374780E-1
9.752447210E-1,-7.840250134E-1,1.309275031E0,7.959874868E-1
9.777469540E-1,-7.339749932E-1,1.277237535E0,8.727124929E-1
9.802496440E-1,-6.679750085E-1,1.243275046E0,9.407749772E-1
9.827518430E-1,-5.839625001E-1,1.204912543E0,9.993500113E-1
9.852545330E-1,-5.031124949E-1,1.159124970E0,1.056825042E0
9.877567660E-1,-4.158000052E-1,1.121862531E0,1.104674935E0
9.902594510E-1,-3.179000020E-1,1.100687504E0,1.147162437E0
9.927616840E-1,-2.231625021E-1,1.078274965E0,1.190887451E0
9.952643740E-1,-1.295250058E-1,1.055999994E0,1.232412457E0
9.977668050E-1,-4.111250117E-2,1.040050030E0,1.273800015E0
1.000269036E0,5.142499879E-2,1.053799987E0,1.309000015E0
1.002771495E0,1.504250020E-1,1.095324993E0,1.342000008E0
1.005273962E0,2.408999950E-1,1.146337509E0,1.368537545E0
1.007776423E0,3.291749954E-1,1.203812480E0,1.383525014E0
1.010278885E0,4.153875113E-1,1.265550017E0,1.385587454E0
1.012781346E0,5.016000271E-1,1.326187491E0,1.370737433E0
1.015283808E0,5.867124796E-1,1.383662462E0,1.340899944E0
1.017786269E0,6.740249991E-1,1.436874986E0,1.300475001E0
1.020288731E0,7.474499941E-1,1.488024950E0,1.248362541E0
1.022791193E0,8.049250245E-1,1.530650020E0,1.202574968E0
1.025293655E0,8.431500196E-1,1.562549949E0,1.158987522E0
1.027796102E0,8.676249981E-1,1.595549941E0,1.117462516E0
1.030298564E0,8.826124668E-1,1.616724968E0,1.069474936E0
1.032801026E0,8.868749738E-1,1.617825031E0,1.015300035E0
1.035303487E0,8.783500195E-1,1.617825031E0,9.748749733E-1
1.037805948E0,8.920999765E-1,1.664712548E0,9.631875157E-1
1.040308399E0,8.826124668E-1,1.626350045E0,9.385749698E-1
1.042810860E0,8.633624911E-1,1.581662536E0,9.099749923E-1
1.045313321E0,8.388875127E-1,1.512500048E0,8.769749999E-1
1.047815783E0,7.804499865E-1,1.384762526E0,8.280249834E-1
1.050318245E0,7.346624732E-1,1.333750010E0,8.002499938E-1
1.052820707E0,6.984999776E-1,1.287962437E0,7.928249836E-1
1.055323169E0,6.165499687E-1,1.166687489E0,7.757750154E-1
1.057825631E0,5.281375051E-1,1.087900043E0,7.672500014E-1
1.060328093E0,4.461874962E-1,1.025062442E0,7.672500014E-1
1.062830554E0,3.610749841E-1,9.527375102E-1,7.683500051E-1
1.065333015E0,2.802250087E-1,8.696874976E-1,7.694500089E-1
1.067835476E0,2.025374919E-1,7.739874721E-1,7.748125196E-1
1.070337937E0,1.291124970E-1,6.749874949E-1,7.768750191E-1
1.072840413E0,5.995000154E-2,5.728250146E-1,7.672500014E-1
1.075342875E0,-1.787499990E-3,4.717625082E-1,7.555624843E-1
1.077845337E0,-5.926249921E-2,3.759250045E-1,7.460749745E-1
1.080347771E0,-1.167374998E-1,2.876499891E-1,7.353500128E-1
1.082850233E0,-1.678874940E-1,2.077624947E-1,7.268249989E-1
1.085352695E0,-2.168374956E-1,1.289750040E-1,7.151374817E-1
1.087855180E0,-2.657875121E-1,5.555000156E-2,6.991875172E-1
1.090357627E0,-3.082749844E-1,-1.361249946E-2,6.843374968E-1
1.092860088E0,-3.477374911E-1,-8.910000324E-2,6.683874726E-1
1.095362549E0,-3.838999867E-1,-1.615625024E-1,6.524375081E-1
1.097865010E0,-4.169000089E-1,-2.222000062E-1,6.406124830E-1
1.100367471E0,-4.562250078E-1,-2.743124962E-1,6.289250255E-1
1.102869858E0,-4.912874997E-1,-3.212000132E-1,6.161375046E-1
1.105372394E0,-5.253875256E-1,-3.616249859E-1,6.001874804E-1
1.107874781E0,-5.530250072E-1,-3.924250007E-1,5.757125020E-1
1.110377317E0,-5.828624964E-1,-4.115374982E-1,5.512375236E-1
1.112879781E0,-6.073374748E-1,-4.179999828E-1,5.215374827E-1
1.115382243E0,-6.286500096E-1,-4.115374982E-1,4.842749834E-1
1.117884704E0,-6.456999779E-1,-3.955875039E-1,4.373874962E-1
1.120387185E0,-6.562874913E-1,-3.753750026E-1,3.863750100E-1
1.122889646E0,-6.637125015E-1,-3.466374874E-1,3.309625089E-1
1.125392107E0,-6.679750085E-1,-3.051125109E-1,2.745875120E-1
1.127894568E0,-6.690750122E-1,-2.604250014E-1,2.139499933E-1
1.130397038E0,-6.668750048E-1,-2.114749998E-1,1.500124931E-1
1.132899499E0,-6.648125052E-1,-1.572999954E-1,8.621250093E-2
1.135401980E0,-6.648125052E-1,-9.982500225E-2,2.337500080E-2
1.137904442E0,-6.594499946E-1,-4.551250115E-2,-3.726249933E-2
1.140406904E0,-6.520249844E-1,1.512499992E-2,-9.047500044E-2
1.142909290E0,-6.052749753E-1,1.406625062E-1,-1.021625027E-1
1.145411749E0,-5.467000008E-1,2.109249979E-1,-1.138499975E-1
1.147914211E0,-5.126000047E-1,2.120250016E-1,-1.414874941E-1
1.150416672E0,-4.817999899E-1,2.183499932E-1,-1.733874977E-1
1.152919134E0,-4.582875073E-1,2.268749923E-1,-1.989624947E-1
1.155421595E0,-4.540250003E-1,2.279749960E-1,-2.245374918E-1
1.157924057E0,-4.701125026E-1,2.364999950E-1,-2.404875010E-1
1.160426519E0,-5.040749907E-1,2.535499930E-1,-2.415875047E-1
1.162928967E0,-5.487625003E-1,2.833875120E-1,-2.287999988E-1
1.165431429E0,-5.967500210E-1,3.238124847E-1,-2.000624985E-1
1.167933891E0,-6.424000263E-1,3.642374873E-1,-1.616999954E-1
1.170436372E0,-6.776000261E-1,3.993000090E-1,-1.212750003E-1
1.172938833E0,-6.978124976E-1,4.269374907E-1,-7.878749818E-2
1.175441294E0,-7.031750083E-1,4.547125101E-1,-2.983750030E-2
1.177943755E0,-6.978124976E-1,4.801499844E-1,1.911249943E-2
1.180446216E0,-6.722375154E-1,5.036625266E-1,7.562500238E-2
1.182948677E0,-6.360750198E-1,5.281375051E-1,1.319999993E-1
1.185451139E0,-5.934500098E-1,5.515124798E-1,1.904374957E-1
1.187953601E0,-5.402374864E-1,5.748875141E-1,2.521750033E-1
1.190456063E0,-4.860624969E-1,6.036249995E-1,3.011249900E-1
1.192958525E0,-4.360125065E-1,6.366249919E-1,3.511750102E-1
1.195460987E0,-3.838999867E-1,6.738874912E-1,3.937999904E-1
1.197963449E0,-3.392125070E-1,7.174749970E-1,4.342249930E-1
1.200465891E0,-2.965874970E-1,7.569375038E-1,4.640625119E-1
1.202968352E0,-2.518999875E-1,7.973625064E-1,4.852375090E-1
1.205470813E0,-2.199999988E-1,8.431500196E-1,5.011875033E-1
1.207973279E0,-1.933249980E-1,8.888000250E-1,5.119125247E-1
1.210475740E0,-1.645874977E-1,9.345874786E-1,5.097125173E-1
1.212978235E0,-1.380500048E-1,9.835374951E-1,5.065500140E-1
1.215480697E0,-1.156374961E-1,1.028224945E0,5.011875033E-1
1.217983159E0,-8.910000324E-2,1.064525008E0,4.885374904E-1
1.220485621E0,-6.242499873E-2,1.094225049E0,4.746499956E-1
1.222988083E0,-4.015000165E-2,1.117737532E0,4.587000012E-1
1.225490545E0,-1.773750037E-2,1.135749936E0,4.395875037E-1
1.227993006E0,2.474999987E-3,1.152799964E0,4.214375019E-1
1.230495467E0,1.526249945E-2,1.166687489E0,4.032875001E-1
1.232997928E0,3.327500075E-2,1.174112439E0,3.895374835E-1
1.235500389E0,5.032499880E-2,1.176174998E0,3.778499961E-1
1.238002841E0,6.737499684E-2,1.174112439E0,3.713875115E-1
1.240505303E0,8.332499862E-2,1.161324978E0,3.661625087E-1
1.243007765E0,9.501250088E-2,1.140012503E0,3.585999906E-1
1.245509997E0,1.131625026E-1,1.108112454E0,3.554374874E-1
1.248012687E0,1.322750002E-1,1.066587448E0,3.522749841E-1
1.250515165E0,1.504250020E-1,1.016537547E0,3.522749841E-1
1.253017627E0,1.567499936E-1,9.707499743E-1,3.543374836E-1
1.255520074E0,1.450625062E-1,9.271624684E-1,3.448500037E-1
1.258022536E0,1.205874979E-1,8.888000250E-1,3.394874930E-1
1.260524997E0,9.501250088E-2,8.559374809E-1,3.500750065E-1
1.263027459E0,6.517499685E-2,8.271999955E-1,3.628624976E-1
1.265529920E0,4.922499880E-2,7.942000031E-1,3.745499849E-1
1.268032381E0,3.973750025E-2,7.580375075E-1,3.906374872E-1
1.270534842E0,3.547500074E-2,7.217375040E-1,4.012250006E-1
1.273037303E0,3.327500075E-2,6.887375116E-1,4.108499885E-1
1.275539536E0,3.437500075E-2,6.696249843E-1,4.268000126E-1
1.278042226E0,4.179999977E-2,6.557375193E-1,4.427500069E-1
1.280544468E0,5.458749831E-2,6.408874989E-1,4.564999938E-1
1.283046927E0,8.442500234E-2,6.397874951E-1,4.683249891E-1
1.285549389E0,1.269125044E-1,6.312624812E-1,4.789125025E-1
1.288051850E0,1.780624986E-1,6.238374710E-1,4.916999936E-1
1.290554312E0,2.375999987E-1,6.249374747E-1,5.011875033E-1
1.293056764E0,2.950749993E-1,6.217749715E-1,5.119125247E-1
1.295559225E0,3.493874967E-1,6.249374747E-1,5.215374827E-1
1.298061687E0,3.962749839E-1,6.271374822E-1,5.278624892E-1
1.300564149E0,4.302375019E-1,6.217749715E-1,5.299249887E-1
1.303066611E0,4.515500069E-1,6.153125167E-1,5.332249999E-1
1.305569073E0,4.569124877E-1,6.078875065E-1,5.256624818E-1
1.308071535E0,4.569124877E-1,5.983999968E-1,5.172749758E-1
1.310573996E0,4.526500106E-1,5.908374786E-1,5.002250075E-1
1.313076457E0,4.504500031E-1,5.802500248E-1,4.831750095E-1
1.315578918E0,4.504500031E-1,5.663625002E-1,4.640625119E-1
1.318081379E0,4.483875036E-1,5.568749905E-1,4.522374868E-1
1.320583841E0,4.452250004E-1,5.611374974E-1,4.459125102E-1
1.323086299E0,4.430249929E-1,5.717250109E-1,4.459125102E-1
1.325588761E0,4.387624860E-1,5.856124759E-1,4.512749910E-1
1.328091223E0,4.387624860E-1,5.941374898E-1,4.501749873E-1
1.330593704E0,4.334000051E-1,5.908374786E-1,4.479750097E-1
1.333096165E0,4.281750023E-1,5.780500174E-1,4.459125102E-1
1.335598626E0,4.164874852E-1,5.589374900E-1,4.353249967E-1
1.338101106E0,4.025999904E-1,5.291000009E-1,4.203374982E-1
1.340603567E0,3.823874891E-1,4.780874848E-1,4.065875113E-1
1.343106028E0,3.430624902E-1,4.120875001E-1,3.916000128E-1
1.345608490E0,2.941125035E-1,3.195500076E-1,3.863750100E-1
1.348110952E0,2.472250015E-1,2.014375031E-1,3.884375095E-1
1.350613414E0,1.876875013E-1,5.348749831E-2,4.043875039E-1
1.353115876E0,1.152250022E-1,-9.762500226E-2,4.268000126E-1
1.355618338E0,5.142499879E-2,-2.179374993E-1,4.533374906E-1
1.358120800E0,7.837500423E-3,-3.115749955E-1,4.874374866E-1
1.360623247E0,-1.457499992E-2,-3.881624937E-1,5.289624929E-1
1.363125708E0,-2.199999988E-2,-4.530625045E-1,5.788750052E-1
1.365628088E0,-1.663750038E-2,-5.255249739E-1,6.237000227E-1
1.368130625E0,5.637499969E-3,-6.041749716E-1,6.502375007E-1
1.370633088E0,4.606249928E-2,-6.786999702E-1,6.747124791E-1
1.373135559E0,9.295000136E-2,-7.489625216E-1,6.895624995E-1
1.375638020E0,1.439625025E-1,-8.032749891E-1,6.895624995E-1
1.378140497E0,1.876875013E-1,-8.405374885E-1,6.971250176E-1
1.380642959E0,2.281125039E-1,-8.628125191E-1,6.971250176E-1
1.383145420E0,2.568500042E-1,-8.681749701E-1,6.843374968E-1
1.385647881E0,2.759625018E-1,-8.596500158E-1,6.661875248E-1
1.388150342E0,2.865499854E-1,-8.362749815E-1,6.459749937E-1
1.390652803E0,2.770625055E-1,-8.032749891E-1,6.268625259E-1
1.393155264E0,2.546499968E-1,-7.734375000E-1,6.151750088E-1
1.395657726E0,2.238499969E-1,-7.404375076E-1,6.066499949E-1
1.398160188E0,1.886499971E-1,-6.957499981E-1,6.033499837E-1
1.400662650E0,1.535875052E-1,-6.553249955E-1,6.109125018E-1
1.403165083E0,1.269125044E-1,-6.191624999E-1,6.300249696E-1
1.405667545E0,1.035374999E-1,-5.904250145E-1,6.545000076E-1
1.408169930E0,8.964999765E-2,-5.680124760E-1,6.928625107E-1
1.410672384E0,8.758749813E-2,-5.446375012E-1,7.418124676E-1
1.413174846E0,9.817499667E-2,-5.255249739E-1,7.959874868E-1
1.415677317E0,1.280124933E-1,-5.127375126E-1,8.588249683E-1
1.418179779E0,1.673374921E-1,-5.062749982E-1,9.279875159E-1
1.420682240E0,2.121624947E-1,-4.956874847E-1,1.000312448E0
1.423184702E0,2.620750070E-1,-4.701125026E-1,1.083362460E0
1.425687164E0,3.195500076E-1,-4.317499995E-1,1.169574976E0
1.428189626E0,3.749625087E-1,-3.849999905E-1,1.258949995E0
1.430692088E0,4.334000051E-1,-3.360500038E-1,1.340899944E0
1.433194550E0,4.888125062E-1,-2.924624979E-1,1.425050020E0
1.435697012E0,5.218124986E-1,-2.551999986E-1,1.494212508E0
1.438199473E0,5.431249738E-1,-2.168374956E-1,1.551687479E0
1.440701929E0,5.654000044E-1,-1.689874977E-1,1.597337484E0
1.443204390E0,5.887749791E-1,-1.040875018E-1,1.643124938E0
1.445706851E0,6.154500246E-1,-3.808749840E-2,1.687812448E0
1.448209312E0,6.495500207E-1,1.828750037E-2,1.729337454E0
1.450711794E0,6.973999739E-1,7.053750008E-2,1.774024963E0
1.453214256E0,7.537750006E-1,1.130250022E-1,1.817612529E0
1.455716718E0,8.069875240E-1,1.428624988E-1,1.861337543E0
1.458219180E0,8.718875051E-1,1.736624986E-1,1.897500038E0
1.460721642E0,9.367874861E-1,2.066625059E-1,1.940124989E0
1.463224104E0,9.900000095E-1,2.461249977E-1,1.979449987E0
1.465726565E0,1.029462457E0,2.865499854E-1,2.012449980E0
1.468229026E0,1.041149974E0,3.088249862E-1,2.048612595E0
1.470731487E0,1.036887527E0,3.216125071E-1,2.095499992E0
1.473233962E0,1.014474988E0,3.163875043E-1,2.147612572E0
1.475736423E0,9.708874822E-1,2.758249938E-1,2.193399906E0
1.478238885E0,9.282624722E-1,2.492875010E-1,2.234787464E0
1.480741342E0,9.006249905E-1,2.429624945E-1,2.277412415E0
1.483243799E0,8.750500083E-1,2.056999952E-1,2.311512470E0
1.485746031E0,8.718875051E-1,1.365374923E-1,2.334887505E0
1.488248721E0,8.750500083E-1,6.833750010E-2,2.362524986E0
1.490751190E0,8.581374884E-1,1.086249948E-2,2.394424915E0
1.493253651E0,8.112499714E-1,-4.977500066E-2,2.417937517E0
1.495756113E0,7.420874834E-1,-1.146750003E-1,2.443374872E0
1.498258574E0,6.271374822E-1,-1.615625024E-1,2.473212481E0
1.500761036E0,4.515500069E-1,-2.008875012E-1,2.484899998E0
1.503263497E0,2.492875010E-1,-2.199999988E-1,2.482837439E0
1.505765958E0,5.252499878E-2,-2.657875121E-1,2.488062382E0
1.508268419E0,-1.263625026E-1,-3.679499924E-1,2.498787403E0
1.510770880E0,-2.849000096E-1,-5.148000121E-1,2.524362564E0
1.513273337E0,-4.104374945E-1,-6.883249879E-1,2.548837423E0
1.515775799E0,-5.115000010E-1,-8.659750223E-1,2.592424870E0
1.518278261E0,-5.988125205E-1,-1.045825005E0,2.664750099E0
1.520780454E0,-6.998749971E-1,-1.196937442E0,2.752062559E0
1.523282914E0,-8.372374773E-1,-1.337462544E0,2.810637474E0
1.525785375E0,-1.014887452E0,-1.471524954E0,2.816962481E0
1.528287861E0,-1.230900049E0,-1.572587490E0,2.780799866E0
1.530790332E0,-1.484174967E0,-1.635424972E0,2.719062567E0
1.533292793E0,-1.759862542E0,-1.638587475E0,2.635050058E0
1.535795255E0,-2.006812572E0,-1.605587482E0,2.511574984E0
1.538297716E0,-2.145137548E0,-1.535462499E0,2.383837461E0
1.540800178E0,-2.147200108E0,-1.498199940E0,2.272049904E0
1.543302640E0,-2.081199884E0,-1.502462506E0,2.167824984E0
1.545805102E0,-1.975875020E0,-1.473724961E0,2.065662384E0
1.548307564E0,-1.851437449E0,-1.382149935E0,2.011349916E0
1.550810026E0,-1.685337543E0,-1.251250029E0,1.983712435E0
1.553312483E0,-1.478950024E0,-1.120350003E0,1.958137512E0
1.555814944E0,-1.261837482E0,-1.017087460E0,1.914549947E0
1.558317405E0,-1.041562438E0,-9.160249829E-1,1.842087507E0
1.560819866E0,-8.329749703E-1,-8.106999993E-1,1.748450041E0
1.563322328E0,-6.531249881E-1,-7.063375115E-1,1.643124938E0
1.565824790E0,-5.168625116E-1,-5.882250071E-1,1.531337500E0
1.568327237E0,-4.243249893E-1,-4.573250115E-1,1.407999992E0
1.570829699E0,-3.614875078E-1,-3.338499963E-1,1.277099967E0
1.573332166E0,-3.062124848E-1,-2.105125040E-1,1.151425004E0
1.575834627E0,-2.518999875E-1,-9.129999578E-2,1.028087497E0
1.578337107E0,-1.827374995E-1,-8.249999955E-3,9.057124853E-1
1.580839568E0,-9.336250275E-2,5.664999783E-2,7.822374701E-1
1.583342029E0,1.374999993E-3,1.098624989E-1,6.672874689E-1
1.585844491E0,9.295000136E-2,1.460250020E-1,5.671874881E-1
1.588346953E0,1.971749961E-1,1.886499971E-1,4.863374829E-1
1.590849415E0,3.206500113E-1,2.492875010E-1,4.277625084E-1
1.593351877E0,4.578749835E-1,3.036000133E-1,3.788124919E-1
1.595854339E0,6.100875139E-1,3.599750102E-1,3.331624866E-1
1.598356800E0,7.708249688E-1,4.067249894E-1,2.937000096E-1
1.600859199E0,9.230374694E-1,4.345000088E-1,2.479124963E-1
1.603361735E0,1.042250037E0,4.376625121E-1,2.000624985E-1
1.605864199E0,1.121999979E0,4.228124917E-1,1.351625025E-1
1.608366651E0,1.156100035E0,4.078249931E-1,5.431250110E-2
1.610869113E0,1.150737524E0,4.035624862E-1,-3.836249933E-2
1.613371498E0,1.119937539E0,3.961375058E-1,-1.457500011E-1
1.615874043E0,1.088999987E0,4.228124917E-1,-2.586374879E-1
1.618376415E0,1.069887519E0,4.599374831E-1,-3.756499887E-1
1.620878951E0,1.041149974E0,4.547125101E-1,-5.139750242E-1
1.623381338E0,1.009250045E0,4.514124990E-1,-6.789749861E-1
1.625883874E0,9.708874822E-1,4.684624970E-1,-8.619874716E-1
1.628386338E0,9.347249866E-1,4.855124950E-1,-1.050362468E0
1.630888799E0,8.952624798E-1,4.908750057E-1,-1.233374953E0
1.633391261E0,8.336625099E-1,4.621374905E-1,-1.391912460E0
1.635893722E0,7.324625254E-1,3.546124995E-1,-1.539862514E0
1.638396184E0,5.878124833E-1,1.907124966E-1,-1.692075014E0
1.640898569E0,4.387624860E-1,-1.141249947E-2,-1.846349955E0
1.643401028E0,2.908124924E-1,-1.944250017E-1,-2.008187532E0
1.645903490E0,1.663749963E-1,-2.763749957E-1,-2.148575068E0
1.648405965E0,7.053750008E-2,-2.998875082E-1,-2.290199995E0
1.650908427E0,1.209999993E-2,-2.881999910E-1,-2.486000061E0
1.653410888E0,6.737499963E-3,-2.349874973E-1,-2.762650013E0
1.655913351E0,6.737499684E-2,-1.243000031E-1,-3.131974936E0
1.658415813E0,1.493249983E-1,-6.036249921E-2,-3.568262577E0
1.660918275E0,2.248124927E-1,-6.366249919E-2,-4.015275002E0
1.663420737E0,2.930124998E-1,-6.366249919E-2,-4.439875126E0
1.665923199E0,3.355000019E-1,-5.293750018E-2,-4.833674908E0
1.668425661E0,3.377000093E-1,-5.939999968E-2,-5.118849754E0
1.670928122E0,3.132250011E-1,-6.682500243E-2,-5.336925030E0
1.673430583E0,2.941125035E-1,-4.124999791E-2,-5.507287502E0
1.675933044E0,3.015374839E-1,-3.918749839E-2,-5.630762577E0
1.678435500E0,3.121249974E-1,-5.609999970E-2,-5.710512638E0
1.680937975E0,3.451249897E-1,-7.535000145E-2,-5.765924931E0
1.683440437E0,3.877499998E-1,-1.784749925E-1,-5.790400028E0
1.685942899E0,4.324375093E-1,-3.488374949E-1,-5.790400028E0
1.688445385E0,4.654375017E-1,-4.860624969E-1,-5.778574944E0
1.690947818E0,4.888125062E-1,-5.787374973E-1,-5.723299980E0
1.693450280E0,4.686000049E-1,-6.723750234E-1,-5.648775101E0
1.695952742E0,4.494875073E-1,-6.234250069E-1,-5.589237690E0
1.698455203E0,4.697000086E-1,-4.307875037E-1,-5.549775124E0
1.700957664E0,5.271750093E-1,-1.072499976E-1,-5.530662537E0
1.703460125E0,5.824499726E-1,2.524499893E-1,-5.490237236E0
1.705962586E0,5.813499689E-1,5.739250183E-1,-5.412549973E0
1.708465047E0,5.121874809E-1,8.568999767E-1,-5.366762638E0
1.710967509E0,4.036999941E-1,1.131487489E0,-5.322074890E0
1.713469971E0,2.855874896E-1,1.346537471E0,-5.248650074E0
1.715972184E0,1.780624986E-1,1.494349957E0,-5.162437439E0
1.718474874E0,8.978749812E-2,1.610399961E0,-5.060275078E0
1.720977102E0,2.584999986E-2,1.722187519E0,-4.945324898E0
1.723479793E0,-1.883750036E-2,1.800837517E0,-4.818687439E0
1.725982266E0,-5.816249922E-2,1.788187504E0,-4.667574883E0
1.728484497E0,-8.910000324E-2,1.658249974E0,-4.502712250E0
1.730987187E0,-1.187999994E-1,1.431650043E0,-4.343074799E0
1.733489420E0,-1.454750001E-1,1.135749936E0,-4.179174900E0
1.735992110E0,-1.816374958E-1,7.942000031E-1,-4.011012554E0
1.738494343E0,-2.294874936E-1,4.482499957E-1,-3.837487459E0
1.740997033E0,-2.934249938E-1,1.204499975E-1,-3.662999868E0
1.743499497E0,-3.614875078E-1,-1.806750000E-1,-3.488512516E0
1.746001958E0,-4.328500032E-1,-4.382124841E-1,-3.306462526E0
1.748504429E0,-5.051749945E-1,-6.319500208E-1,-3.120287418E0
1.751006891E0,-5.743374825E-1,-7.563874722E-1,-2.929712534E0
1.753509121E0,-6.466624737E-1,-8.511250019E-1,-2.738174915E0
1.756011557E0,-7.148625255E-1,-9.330750108E-1,-2.552962542E0
1.758513999E0,-7.786625028E-1,-9.862874746E-1,-2.373112440E0
1.761016461E0,-8.414999843E-1,-9.990749955E-1,-2.208250046E0
1.763518922E0,-9.042000175E-1,-9.553499818E-1,-2.053975105E0
1.766021408E0,-9.744625092E-1,-8.639125228E-1,-1.892137527E0
1.768523870E0,-1.047887444E0,-7.372750044E-1,-1.736762524E0
1.771026332E0,-1.120212436E0,-5.807999969E-1,-1.605862498E0
1.773528794E0,-1.192674994E0,-4.626874924E-1,-1.502599955E0
1.776031256E0,-1.254412532E0,-3.744125068E-1,-1.416387439E0
1.778533718E0,-1.306524992E0,-2.806375027E-1,-1.337737441E0
1.781036179E0,-1.350112438E0,-1.721500009E-1,-1.260049939E0
1.783538640E0,-1.375687480E0,-8.167500049E-2,-1.183325052E0
1.786041101E0,-1.376787543E0,-3.162499890E-2,-1.108937502E0
1.788543548E0,-1.348049998E0,-1.677500084E-2,-1.026987553E0
1.791046009E0,-1.279850006E0,-1.993750036E-2,-9.524624944E-1
1.793548451E0,-1.184149981E0,-3.066249937E-2,-8.875625134E-1
1.796050913E0,-1.077725053E0,-2.736249939E-2,-8.332499862E-1
1.798553361E0,-9.616749883E-1,3.437499981E-3,-7.928249836E-1
1.801055823E0,-8.361374736E-1,2.584999986E-2,-7.640874982E-1
1.803558251E0,-6.998749971E-1,2.901249938E-2,-7.523999810E-1
1.806060713E0,-5.615500212E-1,3.217500076E-2,-7.459374666E-1
1.808563174E0,-4.306499958E-1,3.849999979E-2,-7.534999847E-1
1.811065635E0,-2.976875007E-1,5.348749831E-2,-7.662875056E-1
1.813568096E0,-1.645874977E-1,7.796250284E-2,-7.864999771E-1
1.816070557E0,-3.052499890E-2,1.120624989E-1,-8.056125045E-1
1.818573018E0,9.501250088E-2,1.471250057E-1,-8.109750152E-1
1.821075480E0,2.121624947E-1,1.854874939E-1,-8.067125082E-1
1.823577942E0,3.249124885E-1,2.194499969E-1,-7.864999771E-1
1.826080404E0,4.324375093E-1,2.546499968E-1,-7.544624805E-1
1.828582866E0,5.218124986E-1,2.780250013E-1,-7.182999849E-1
1.831085328E0,6.058250070E-1,2.960374951E-1,-6.810374856E-1
1.833587790E0,6.920375228E-1,3.195500076E-1,-6.448749900E-1
1.836090160E0,7.708249688E-1,3.568125069E-1,-6.044499874E-1
1.838592610E0,8.431500196E-1,3.961375058E-1,-5.618249774E-1
1.841095071E0,9.165750146E-1,4.408249855E-1,-5.224999785E-1
1.843597533E0,9.772124887E-1,5.014625192E-1,-4.820750058E-1
1.846100071E0,1.027262449E0,5.770875216E-1,-4.331249893E-1
1.848602458E0,1.073050022E0,6.664624810E-1,-3.819749951E-1
1.851104995E0,1.115674973E0,7.601000071E-1,-3.203749955E-1
1.853607381E0,1.165587544E0,8.346250057E-1,-2.521750033E-1
1.856109918E0,1.228425026E0,8.920999765E-1,-1.766874939E-1
1.858612304E0,1.293324947E0,9.538375139E-1,-1.021625027E-1
1.861114841E0,1.356162548E0,1.008012533E0,-1.704999991E-2
1.863617304E0,1.417899966E0,1.032487512E0,7.342500240E-2
1.866119766E0,1.481699944E0,1.005949974E0,1.670625061E-1
1.868622246E0,1.539175034E0,9.675874710E-1,2.766500115E-1
1.871124708E0,1.597749949E0,9.229000211E-1,4.001249969E-1
1.873627093E0,1.635012507E0,8.793125153E-1,5.332249999E-1
1.876129552E0,1.638175011E0,8.474124670E-1,6.758124828E-1
1.878632014E0,1.614799976E0,8.622624874E-1,8.428750038E-1
1.881134485E0,1.549762487E0,8.685874939E-1,1.044999957E0
1.883636947E0,1.441275001E0,8.685874939E-1,1.252624989E0
1.886139408E0,1.315737486E0,9.154750109E-1,1.484587550E0
1.888641870E0,1.175212502E0,9.942625165E-1,1.737862468E0
1.891144332E0,1.025200009E0,1.087900043E0,2.007087469E0
1.893646794E0,8.496124744E-1,1.196387529E0,2.305049896E0
1.896149256E0,6.569749713E-1,1.256062508E0,2.594487429E0
1.898651718E0,4.632374942E-1,1.277237535E0,2.832912445E0
1.901154180E0,2.727999985E-1,1.266649961E0,3.032974958E0
1.903656622E0,8.552499861E-2,1.210274935E0,3.207462549E0
1.906159083E0,-1.018875018E-1,1.101650000E0,3.333137512E0
1.908661544E0,-2.806375027E-1,9.623624682E-1,3.423612595E0
1.911163990E0,-4.540250003E-1,7.888374925E-1,3.467200041E0
1.913666451E0,-6.296125054E-1,5.961999893E-1,3.474624872E0
1.916168913E0,-8.031374812E-1,4.100250006E-1,3.460875034E0
1.918671404E0,-9.766625166E-1,2.364999950E-1,3.435299873E0
1.921173866E0,-1.139462471E0,8.538749814E-2,3.403399944E0
1.923676319E0,-1.293737531E0,-6.572499871E-2,3.359674931E0
1.926178781E0,-1.428900003E0,-2.190375030E-1,3.291612387E0
1.928681243E0,-1.539587498E0,-3.775750101E-1,3.175562382E0
1.931183704E0,-1.635287523E0,-5.531625152E-1,3.024450064E0
1.933686165E0,-1.706650019E0,-7.393375039E-1,2.843637466E0
1.936188626E0,-1.762062550E0,-9.277125001E-1,2.656224966E0
1.938691087E0,-1.804549932E0,-1.102200031E0,2.479675055E0
1.941193548E0,-1.830124974E0,-1.252349973E0,2.308212519E0
1.943696010E0,-1.831225038E0,-1.376787543E0,2.146512508E0
1.946198243E0,-1.809912443E0,-1.481150031E0,1.992237449E0
1.948700687E0,-1.772650003E0,-1.555675030E0,1.819812536E0
1.951203149E0,-1.733325005E0,-1.610949993E0,1.643124938E0
1.953705620E0,-1.698125005E0,-1.658800006E0,1.477162480E0
1.956208082E0,-1.670487523E0,-1.704587460E0,1.307899952E0
1.958710577E0,-1.640650034E0,-1.742949963E0,1.146199942E0
1.961213270E0,-1.614112496E0,-1.783375025E0,1.009937525E0
1.963715502E0,-1.581112504E0,-1.803587437E0,8.886625171E-1
1.966218193E0,-1.552374959E0,-1.808949947E0,7.768750191E-1
1.968720425E0,-1.534224987E0,-1.824900031E0,6.704499722E-1
1.971223116E0,-1.511950016E0,-1.856799960E0,5.736500025E-1
1.973725349E0,-1.472487450E0,-1.891862512E0,4.948624969E-1
1.976228039E0,-1.410750031E0,-1.947275043E0,4.257000089E-1
1.978730272E0,-1.346949935E0,-2.032387495E0,3.426499963E-1
1.981232962E0,-1.284112453E0,-2.123962402E0,2.586374879E-1
1.983735425E0,-1.204362512E0,-2.209074974E0,2.096875012E-1
1.986237892E0,-1.112787485E0,-2.328287601E0,1.744875014E-1
1.988740123E0,-1.024512529E0,-2.456987381E0,1.500124931E-1
1.991242582E0,-9.180874825E-1,-2.581562519E0,1.331000030E-1
1.993745030E0,-8.127624989E-1,-2.641099930E0,1.308999956E-1
1.996247491E0,-7.254499793E-1,-2.606999874E0,1.405249983E-1
1.998749967E0,-6.307125092E-1,-2.470875025E0,1.607374996E-1
2.001252429E0,-5.190625191E-1,-2.285662413E0,1.883749962E-1
2.003754890E0,-3.859624863E-1,-2.070749998E0,2.096875012E-1
2.006257352E0,-2.294874936E-1,-1.809912443E0,2.384250015E-1
2.008759814E0,-4.963750020E-2,-1.556637526E0,2.734875083E-1
2.011262276E0,1.546874940E-1,-1.341724992E0,3.044250011E-1
2.013764738E0,3.898124993E-1,-1.154449940E0,3.383874893E-1
2.016267200E0,6.527125239E-1,-9.809250236E-1,3.585999906E-1
2.018769661E0,9.208375216E-1,-8.309124708E-1,3.554374874E-1
2.021272132E0,1.164625049E0,-7.063375115E-1,3.405874968E-1
2.023774593E0,1.383800030E0,-6.010124683E-1,3.426499963E-1
2.026277054E0,1.592387438E0,-5.170000196E-1,4.512749910E-1
2.028779516E0,1.734974980E0,-4.402749836E-1,5.204374790E-1
2.031281978E0,1.818024993E0,-3.838999867E-1,5.097125173E-1
2.033784440E0,1.876462460E0,-3.062124848E-1,4.937624931E-1
2.036286887E0,1.902037501E0,-2.062499970E-1,4.703874886E-1
2.038789363E0,1.899974942E0,-1.093124971E-1,4.459125102E-1
2.041291824E0,1.886087537E0,-5.939999968E-2,4.086500108E-1
2.043794285E0,1.849925041E0,-1.677500084E-2,3.480125070E-1
2.046296746E0,1.795612454E0,8.112499863E-2,3.075875044E-1
2.048799207E0,1.738137484E0,1.821874976E-1,2.862749994E-1
2.051301668E0,1.686025023E0,2.513499856E-1,2.628999949E-1
2.053804130E0,1.642437458E0,2.833875120E-1,2.447499931E-1
2.056306592E0,1.614799976E0,2.833875120E-1,2.256374955E-1
2.058809054E0,1.600912452E0,2.503874898E-1,2.043250054E-1
2.061311516E0,1.598712444E0,1.992374957E-1,1.724250019E-1
2.063813925E0,1.602012515E0,1.311749965E-1,1.340624988E-1
2.066316385E0,1.602012515E0,2.791249938E-2,9.679999948E-2
2.068818846E0,1.559387445E0,-1.306249946E-1,8.827500045E-2
2.071321304E0,1.541237473E0,-2.498375028E-1,5.115000159E-2
2.073823765E0,1.546599984E0,-3.456749916E-1,-2.021249942E-2
2.076326251E0,1.542337537E0,-4.680500031E-1,-9.363749623E-2
2.078828712E0,1.525287509E0,-6.126999855E-1,-1.989624947E-1
2.081331251E0,1.498749971E0,-7.669749856E-1,-3.287625015E-1
2.083833638E0,1.471112490E0,-9.180874825E-1,-4.714874923E-1
2.086336174E0,1.447600007E0,-1.052287459E0,-6.342874765E-1
2.088838561E0,1.424224973E0,-1.185250044E0,-7.842999697E-1
2.091341097E0,1.392325044E0,-1.307624936E0,-9.248250127E-1
2.093843484E0,1.361387491E0,-1.407724977E0,-1.067412496E0
2.096345943E0,1.329487443E0,-1.468362451E0,-1.215362549E0
2.098848405E0,1.296487451E0,-1.516212463E0,-1.366474986E0
2.101350866E0,1.269950032E0,-1.563099980E0,-1.528174996E0
2.103853328E0,1.238049984E0,-1.593899965E0,-1.690012455E0
2.106355803E0,1.182637453E0,-1.650274992E0,-1.812387466E0
2.108858265E0,1.098624945E0,-1.715312481E0,-1.910287499E0
2.111360717E0,1.027262449E0,-1.720537543E0,-2.032662392E0
2.113863179E0,9.708874822E-1,-1.705687523E0,-2.184875011E0
2.116365632E0,8.942999840E-1,-1.719437480E0,-2.365687370E0
2.118868094E0,8.101499677E-1,-1.743912458E0,-2.564787388E0
2.121370551E0,7.463499904E-1,-1.829162478E0,-2.743537426E0
2.123873012E0,6.888750196E-1,-1.888700008E0,-2.922287464E0
2.126375473E0,6.335999966E-1,-1.921700001E0,-3.093612432E0
2.128877934E0,5.803874731E-1,-1.986600041E0,-3.231937408E0
2.131380395E0,5.229125023E-1,-2.084500074E0,-3.323512554E0
2.133882856E0,4.823499918E-1,-2.200550079E0,-3.417150021E0
2.136385318E0,4.728625119E-1,-2.326087475E0,-3.504462481E0
2.138887780E0,4.782249928E-1,-2.489987373E0,-3.552312374E0
2.141390242E0,4.749250114E-1,-2.678362370E0,-3.582149982E0
2.143892704E0,4.654375017E-1,-2.867837429E0,-3.616112471E0
2.146395166E0,4.569124877E-1,-3.089075089E0,-3.626837492E0
2.148897628E0,4.387624860E-1,-3.355137587E0,-3.614049911E0
2.151400089E0,4.174500108E-1,-3.616937399E0,-3.599200010E0
2.153902550E0,4.046624899E-1,-3.867049932E0,-3.571424961E0
2.156405016E0,3.770250082E-1,-4.104374886E0,-3.541724920E0
2.158907477E0,3.334375024E-1,-4.306637287E0,-3.519312382E0
2.161409938E0,2.546499968E-1,-4.421587467E0,-3.494837523E0
2.163912400E0,1.461624950E-1,-4.415124893E0,-3.471462488E0
2.166414633E0,4.179999977E-2,-4.317224979E0,-3.471462488E0
2.168917092E0,-4.111250117E-2,-4.122525215E0,-3.466099977E0
2.171419554E0,-1.486375034E-1,-3.900049925E0,-3.419349909E0
2.173922015E0,-2.838000059E-1,-3.685137510E0,-3.312925100E0
2.176424477E0,-4.274874926E-1,-3.462662458E0,-3.137337446E0
2.178926928E0,-5.849249959E-1,-3.320075035E0,-2.922287464E0
2.181429390E0,-7.402999997E-1,-3.144487381E0,-2.679600000E0
2.183931852E0,-8.956750035E-1,-2.845424891E0,-2.431687593E0
2.186434319E0,-1.053249955E0,-2.515562534E0,-2.175250053E0
2.188936781E0,-1.206424952E0,-2.228187561E0,-1.910287499E0
2.191439243E0,-1.339524984E0,-1.952499986E0,-1.660174966E0
2.193941705E0,-1.447049975E0,-1.706787467E0,-1.427112460E0
2.196444395E0,-1.514012456E0,-1.429999948E0,-1.220587492E0
2.198946652E0,-1.555537462E0,-1.118287444E0,-1.037575006E0
2.201449111E0,-1.564062476E0,-8.425999880E-1,-8.641874790E-1
2.203951587E0,-1.534224987E0,-6.063749790E-1,-6.852999926E-1
2.206454048E0,-1.475787520E0,-3.551625013E-1,-4.937624931E-1
2.208956510E0,-1.383112550E0,-1.402499974E-1,-2.851749957E-1
2.211458972E0,-1.264999986E0,7.796250284E-2,-7.658749819E-2
2.213961433E0,-1.124475002E0,2.982375026E-1,1.340624988E-1
2.216463900E0,-9.648374915E-1,4.717625082E-1,3.554374874E-1
2.218966362E0,-7.892500162E-1,6.015625000E-1,5.693874955E-1
2.221468824E0,-6.084374785E-1,6.813125014E-1,7.662875056E-1
2.223971262E0,-4.221250117E-1,7.174749970E-1,9.385749698E-1
2.226473724E0,-2.402125001E-1,7.302625179E-1,1.083362460E0
2.228976185E0,-6.778749824E-2,7.165125012E-1,1.207937479E0
2.231478656E0,9.817499667E-2,6.994624734E-1,1.312162519E0
2.233981117E0,2.546499968E-1,6.760874987E-1,1.405799985E0
2.236483578E0,4.005374908E-1,6.451500058E-1,1.489949942E0
2.238986040E0,5.207124949E-1,6.036249995E-1,1.569700003E0
2.241488473E0,6.143500209E-1,5.461499691E-1,1.641062498E0
2.243990935E0,6.846125126E-1,4.801499844E-1,1.695237517E0
2.246493397E0,7.293000221E-1,4.120875001E-1,1.734699965E0
2.248995859E0,7.569375038E-1,3.301374912E-1,1.758074999E0
2.251498320E0,7.654625177E-1,2.151875049E-1,1.763437510E0
2.254000705E0,7.569375038E-1,8.002500236E-2,1.760275006E0
2.256503241E0,7.378249764E-1,-7.535000145E-2,1.748450041E0
2.259005705E0,7.187125087E-1,-2.105125040E-1,1.719712496E0
2.261508166E0,6.835125089E-1,-3.466374874E-1,1.675024986E0
2.264010628E0,6.302999854E-1,-4.806999862E-1,1.625112534E0
2.266513085E0,5.685625076E-1,-6.191624999E-1,1.570799947E0
2.269015546E0,4.962374866E-1,-7.627124786E-1,1.504799962E0
2.271517931E0,4.291374981E-1,-8.650124669E-1,1.416525006E0
2.274020390E0,3.579125106E-1,-9.510874748E-1,1.316424966E0
2.276522842E0,2.770625055E-1,-1.067137480E0,1.241899967E0
2.279025303E0,1.876875013E-1,-1.203400016E0,1.183462501E0
2.281527765E0,9.501250088E-2,-1.340625048E0,1.131212473E0
2.284030236E0,2.749999985E-4,-1.474687457E0,1.090787530E0
2.286532698E0,-8.910000324E-2,-1.600362539E0,1.062049985E0
2.289035160E0,-1.742125005E-1,-1.720537543E0,1.037575006E0
2.291537636E0,-2.487374991E-1,-1.826962471E0,1.011037469E0
2.294040098E0,-3.167999983E-1,-1.917437434E0,9.791374803E-1
2.296542560E0,-3.711124957E-1,-1.980275035E0,9.470999837E-1
2.299045022E0,-4.252874851E-1,-2.007912397E0,9.216625094E-1
2.301547483E0,-4.732750058E-1,-2.006812572E0,9.088749886E-1
2.304049944E0,-5.222250223E-1,-2.033487558E0,9.003499746E-1
2.306552405E0,-5.817624927E-1,-2.073912382E0,8.864625096E-1
2.309054890E0,-6.275500059E-1,-2.075012445E0,8.534625173E-1
2.311557351E0,-6.659125090E-1,-2.069649935E0,8.449375033E-1
2.314059813E0,-7.009750009E-1,-2.056862593E0,8.503000140E-1
2.316562266E0,-7.148625255E-1,-2.007912397E0,8.599249721E-1
2.319064728E0,-7.169250250E-1,-1.930225015E0,8.747749925E-1
2.321567190E0,-7.169250250E-1,-1.850337505E0,8.822000027E-1
2.324069652E0,-7.265499830E-1,-1.778012514E0,8.960874677E-1
2.326572114E0,-7.382375002E-1,-1.722737432E0,9.035124779E-1
2.329074575E0,-7.445625067E-1,-1.671587467E0,9.066749811E-1
2.331577036E0,-7.499250174E-1,-1.619475007E0,9.120374918E-1
2.334079497E0,-7.605124712E-1,-1.592800021E0,9.174000025E-1
2.336581729E0,-7.775624990E-1,-1.585374951E0,9.226250052E-1
2.339084433E0,-7.849875093E-1,-1.577950001E0,9.248250127E-1
2.341586666E0,-7.882875204E-1,-1.583312511E0,9.301875234E-1
2.344089356E0,-8.020374775E-1,-1.604624987E0,9.354124665E-1
2.346591589E0,-8.148249984E-1,-1.632262468E0,9.470999837E-1
2.349094280E0,-8.318749666E-1,-1.670487523E0,9.663500190E-1
2.351596512E0,-8.563500047E-1,-1.717375040E0,9.865624905E-1
2.354099203E0,-8.830249906E-1,-1.766324997E0,1.007874966E0
2.356601661E0,-9.106624722E-1,-1.804687500E0,1.024787545E0
2.359104123E0,-9.468249679E-1,-1.840849996E0,1.038674951E0
2.361606574E0,-9.968749881E-1,-1.872750044E0,1.051462531E0
2.364109036E0,-1.054350019E0,-1.902587533E0,1.059987545E0
2.366611497E0,-1.117050052E0,-1.931324959E0,1.072775006E0
2.369113728E0,-1.179887533E0,-1.940812469E0,1.089825034E0
2.371616188E0,-1.235162497E0,-1.923762441E0,1.097249985E0
2.374118659E0,-1.284112453E0,-1.889799953E0,1.096150041E0
2.376621121E0,-1.330999970E0,-1.845112443E0,1.096150041E0
2.379123582E0,-1.366062522E0,-1.787637472E0,1.090787530E0
2.381626044E0,-1.394799948E0,-1.722737432E0,1.090787530E0
2.384128505E0,-1.419275045E0,-1.652474999E0,1.084462523E0
2.386630967E0,-1.435225010E0,-1.581112504E0,1.062049985E0
2.389133429E0,-1.448012471E0,-1.513049960E0,1.030149937E0
2.391635891E0,-1.451312542E0,-1.442787528E0,9.886249900E-1
2.394138353E0,-1.449112535E0,-1.368262529E0,9.322500229E-1
2.396640815E0,-1.444849968E0,-1.290575027E0,8.588249683E-1
2.399143263E0,-1.434262514E0,-1.217149973E0,7.587249875E-1
2.401645724E0,-1.418312550E0,-1.134237528E0,6.353874803E-1
2.404148165E0,-1.404425025E0,-1.051187515E0,4.916999936E-1
2.406650626E0,-1.385312438E0,-9.724000096E-1,3.363249898E-1
2.409153087E0,-1.366062522E0,-8.936125040E-1,1.713249981E-1
2.411655548E0,-1.352312446E0,-8.138625026E-1,1.168750040E-2
2.414157991E0,-1.343787551E0,-7.478625178E-1,-1.372250021E-1
2.416660453E0,-1.339524984E0,-7.053750157E-1,-2.723875046E-1
2.419162915E0,-1.339524984E0,-6.786999702E-1,-3.830749989E-1
2.421665377E0,-1.338425040E0,-6.616500020E-1,-4.831750095E-1
2.424167839E0,-1.335262537E0,-6.467999816E-1,-5.757125020E-1
2.426670301E0,-1.337324977E0,-6.351125240E-1,-6.608250141E-1
2.429172762E0,-1.336362481E0,-6.212249994E-1,-7.236624956E-1
2.431675147E0,-1.333062530E0,-6.115999818E-1,-7.715125084E-1
2.434177606E0,-1.321375012E0,-5.904250145E-1,-8.034124970E-1
2.436680068E0,-1.310787439E0,-5.637499690E-1,-8.226624727E-1
2.439182548E0,-1.303362489E0,-5.446375012E-1,-8.428750038E-1
2.441685010E0,-1.299100041E0,-5.350124836E-1,-8.673499823E-1
2.444187467E0,-1.303362489E0,-5.318499804E-1,-8.949875236E-1
2.446689929E0,-1.318212509E0,-5.297874808E-1,-9.248250127E-1
2.449192391E0,-1.338425040E0,-5.339124799E-1,-9.609875083E-1
2.451694853E0,-1.367162466E0,-5.286874771E-1,-1.004575014E0
2.454197390E0,-1.399062514E0,-5.137000084E-1,-1.046100020E0
2.456699776E0,-1.434262514E0,-4.903250039E-1,-1.083362460E0
2.459202313E0,-1.468225002E0,-4.552625120E-1,-1.113199949E0
2.461704699E0,-1.502324939E0,-4.072749913E-1,-1.138637543E0
2.464207159E0,-1.537387490E0,-3.551625013E-1,-1.164212465E0
2.466709620E0,-1.567224979E0,-2.881999910E-1,-1.195150018E0
2.469212082E0,-1.595962524E0,-2.147749960E-1,-1.248362541E0
2.471714544E0,-1.624699950E0,-1.380500048E-1,-1.305837512E0
2.474217005E0,-1.651374936E0,-6.682500243E-2,-1.345162511E0
2.476719462E0,-1.673650026E0,1.374999993E-3,-1.378162503E0
2.479221924E0,-1.689599991E0,6.311249733E-2,-1.410062551E0
2.481724386E0,-1.699224949E0,1.204499975E-1,-1.451587439E0
2.484226839E0,-1.710912466E0,1.747625023E-1,-1.501637459E0
2.486729301E0,-1.718337536E0,2.268749923E-1,-1.565437436E0
2.489231762E0,-1.722599983E0,2.843500078E-1,-1.633499980E0
2.491734223E0,-1.726862550E0,3.451249897E-1,-1.715450048E0
2.494236712E0,-1.735387444E0,4.057624936E-1,-1.810187459E0
2.496739173E0,-1.745012522E0,4.632374942E-1,-1.899562478E0
2.499241649E0,-1.747074962E0,5.196124911E-1,-1.974087477E0
2.501744111E0,-1.748175025E0,5.802500248E-1,-2.038987398E0
2.504246573E0,-1.748175025E0,6.312624812E-1,-2.108150005E0
2.506749035E0,-1.741712451E0,6.749874949E-1,-2.179512501E0
2.509251507E0,-1.733325005E0,7.207750082E-1,-2.248674870E0
2.511753968E0,-1.722599983E0,7.664250135E-1,-2.317837477E0
2.514256419E0,-1.703487515E0,8.133124709E-1,-2.379575014E0
2.516758880E0,-1.682175040E0,8.611624837E-1,-2.440212488E0
2.519261341E0,-1.661962509E0,9.250999689E-1,-2.499749899E0
2.521763802E0,-1.638587475E0,1.010212541E0,-2.547737598E0
2.524266264E0,-1.614112496E0,1.107012510E0,-2.597787380E0
2.526768497E0,-1.592800021E0,1.216599941E0,-2.644537449E0
2.529270956E0,-1.575749993E0,1.331550002E0,-2.680700064E0
2.531773418E0,-1.561862469E0,1.464650035E0,-2.704075098E0
2.534275879E0,-1.543849945E0,1.613562465E0,-2.721124887E0
2.536778341E0,-1.517174959E0,1.764675021E0,-2.721124887E0
2.539280797E0,-1.474687457E0,1.912624955E0,-2.708337545E0
2.541783259E0,-1.416112542E0,2.038162470E0,-2.683862448E0
2.544285721E0,-1.326737523E0,2.126574993E0,-2.648799896E0
2.546788164E0,-1.189512491E0,2.158474922E0,-2.601912498E0
2.549290626E0,-1.004299998E0,2.120112419E0,-2.537012577E0
2.551793088E0,-7.573499680E-1,1.988250017E0,-2.446537495E0
2.554295550E0,-4.465999901E-1,1.776362538E0,-2.331724882E0
2.556797998E0,-9.226249903E-2,1.541237473E0,-2.202887535E0
2.559300459E0,2.611125112E-1,1.352862477E0,-2.070887566E0
2.561809612E0,5.761250257E-1,1.239012480E0,-1.941087484E0
2.564305420E0,8.442500234E-1,1.200649977E0,-1.809087515E0
2.566807879E0,1.070987463E0,1.214537501E0,-1.664437532E0
2.569310341E0,1.252900004E0,1.227324963E0,-1.504799962E0
2.571812803E0,1.390125036E0,1.237912536E0,-1.342962503E0
2.574315293E0,1.497650027E0,1.276275039E0,-1.181262493E0
2.576817755E0,1.582762480E0,1.350800037E0,-1.014199972E0
2.579320216E0,1.633912444E0,1.469874978E0,-8.449375033E-1
2.581822678E0,1.642437458E0,1.642300010E0,-6.534000039E-1
2.584325139E0,1.624287486E0,1.851987481E0,-4.522374868E-1
2.586827526E0,1.569975019E0,2.059474945E0,-2.490125000E-1
2.589329985E0,1.488024950E0,2.247849941E0,-4.468749836E-2
2.591832524E0,1.385862470E0,2.413812399E0,1.553750038E-1
2.594334911E0,1.283699989E0,2.565062523E0,3.405874968E-1
2.596837466E0,1.180575013E0,2.688400030E0,5.033875108E-1
2.599339853E0,1.084737539E0,2.772549868E0,6.470749974E-1
2.601842428E0,9.974250197E-1,2.827825069E0,7.694500089E-1
2.604344815E0,9.145125151E-1,2.866187572E0,8.705124855E-1
2.606847351E0,8.379250169E-1,2.885299921E0,9.279875159E-1
2.609349733E0,7.782499790E-1,2.875812531E0,9.461374879E-1
2.611852269E0,7.218750119E-1,2.837450027E0,9.301875234E-1
2.614354733E0,6.697624922E-1,2.777775049E0,8.779374957E-1
2.616857117E0,6.165499687E-1,2.715075016E0,8.024500012E-1
2.619359606E0,5.600374937E-1,2.653337479E0,7.077124715E-1
2.621862068E0,4.962374866E-1,2.592700005E0,5.970249772E-1
2.624364529E0,4.259749949E-1,2.525599957E0,4.767124951E-1
2.626866981E0,3.473249972E-1,2.444750071E0,3.533749878E-1
2.629369442E0,2.611125112E-1,2.354274988E0,2.160124928E-1
2.631871904E0,1.663749963E-1,2.250050068E0,7.026249915E-2
2.634374366E0,6.737499684E-2,2.125474930E0,-6.283749640E-2
2.636876828E0,-3.368749842E-2,1.989212513E0,-1.841125041E-1
2.639379290E0,-1.369500011E-1,1.846624970E0,-2.937000096E-1
2.641881752E0,-2.294874936E-1,1.705137491E0,-3.937999904E-1
2.644384213E0,-3.210625052E-1,1.567775011E0,-4.916999936E-1
2.646886674E0,-4.093374908E-1,1.435912490E0,-5.736500025E-1
2.649389145E0,-4.923875034E-1,1.294287443E0,-6.448749900E-1
2.651891606E0,-5.774999857E-1,1.148537517E0,-7.077124715E-1
2.654394068E0,-6.626124978E-1,9.920625091E-1,-7.598249912E-1
2.656896521E0,-7.456625104E-1,8.346250057E-1,-8.013499975E-1
2.659398983E0,-8.222500086E-1,6.727874875E-1,-8.354499936E-1
2.661901426E0,-8.999375105E-1,5.036625266E-1,-8.619874716E-1
2.664403888E0,-9.670374990E-1,3.110249937E-1,-8.801375031E-1
2.666906349E0,-1.021350026E0,1.024374962E-1,-8.949875236E-1
2.669408810E0,-1.066037536E0,-1.200374961E-1,-9.131374955E-1
2.671911256E0,-1.104262471E0,-3.349500000E-1,-9.300500154E-1
2.674413488E0,-1.141525030E0,-5.233250260E-1,-9.609875083E-1
2.676915948E0,-1.185250044E0,-6.776000261E-1,-1.008837461E0
2.679418399E0,-1.208624959E0,-7.489625216E-1,-1.093950033E0
2.681920861E0,-1.197899938E0,-6.786999702E-1,-1.180162549E0
2.684423322E0,-1.185250044E0,-5.500000119E-1,-1.216325045E0
2.686925784E0,-1.170262456E0,-3.903625011E-1,-1.231312513E0
2.689428245E0,-1.162837505E0,-2.147749960E-1,-1.243000031E0
2.691930707E0,-1.160774946E0,-1.993750036E-2,-1.248362541E0
2.694433169E0,-1.156512499E0,1.918125004E-1,-1.261012435E0
2.696935631E0,-1.144687533E0,4.174500108E-1,-1.267475009E0
2.699438093E0,-1.125574946E0,6.525750160E-1,-1.269537449E0
2.701940570E0,-1.105362535E0,8.856375217E-1,-1.262112498E0
2.704443032E0,-1.085150003E0,1.105912447E0,-1.256887436E0
2.706945493E0,-1.062875032E0,1.318762541E0,-1.247262478E0
2.709447949E0,-1.039362550E0,1.522125006E0,-1.231312513E0
2.711950410E0,-1.024512529E0,1.713662505E0,-1.211099982E0
2.714452885E0,-1.012825012E0,1.890349984E0,-1.185524940E0
2.716955346E0,-1.007462502E0,2.057412386E0,-1.154587507E0
2.719457818E0,-1.006362438E0,2.215950012E0,-1.128049970E0
2.721960280E0,-1.015987515E0,2.351112604E0,-1.101512551E0
2.724462742E0,-1.039362550E0,2.457537413E0,-1.077999949E0
2.726965204E0,-1.075525045E0,2.529862404E0,-1.071674943E0
2.729467666E0,-1.116087437E0,2.567125082E0,-1.069474936E0
2.731970128E0,-1.163937449E0,2.584174871E0,-1.077999949E0
2.734472589E0,-1.209725022E0,2.581974983E0,-1.089687467E0
2.736974974E0,-1.258674979E0,2.560800076E0,-1.112100005E0
2.739477510E0,-1.309687495E0,2.517075062E0,-1.137675047E0
2.741979897E0,-1.359737515E0,2.458637476E0,-1.166412473E0
2.744482423E0,-1.405524969E0,2.380949974E0,-1.200374961E0
2.746984810E0,-1.448012471E0,2.299000025E0,-1.241899967E0
2.749487347E0,-1.482112527E0,2.213749886E0,-1.283424973E0
2.751989805E0,-1.504524946E0,2.144587517E0,-1.321787477E0
2.754492267E0,-1.510849953E0,2.079687595E0,-1.355749965E0
2.756994651E0,-1.505487442E0,2.014787436E0,-1.383525014E0
2.759497111E0,-1.491737485E0,1.948787451E0,-1.408962488E0
2.761999572E0,-1.468225002E0,1.887050033E0,-1.426012516E0
2.764502034E0,-1.425737500E0,1.822149992E0,-1.435637474E0
2.767004495E0,-1.377750039E0,1.760412455E0,-1.439900041E0
2.769506957E0,-1.313949943E0,1.706237435E0,-1.441962481E0
2.772009419E0,-1.244787455E0,1.656187534E0,-1.438799977E0
2.774511881E0,-1.168200016E0,1.596512437E0,-1.431375027E0
2.777014343E0,-1.094774961E0,1.534775019E0,-1.428212523E0
2.779516786E0,-1.019150019E0,1.467812538E0,-1.430274963E0
2.782019248E0,-9.457250237E-1,1.389024973E0,-1.438799977E0
2.784521709E0,-8.722999692E-1,1.305012465E0,-1.450487494E0
2.787024146E0,-8.020374775E-1,1.216599941E0,-1.462175012E0
2.789526607E0,-7.360374928E-1,1.116637468E0,-1.478124976E0
2.792029068E0,-6.765000224E-1,1.012274981E0,-1.496274948E0
2.794531505E0,-6.190249920E-1,9.006249905E-1,-1.519649982E0
2.797033967E0,-5.680124760E-1,7.888374925E-1,-1.551550031E0
2.799536444E0,-5.242875218E-1,6.813125014E-1,-1.584550023E0
2.802038906E0,-4.838624895E-1,5.813499689E-1,-1.621812463E0
2.804541368E0,-4.519625008E-1,4.812499881E-1,-1.669662476E0
2.807043830E0,-4.338124990E-1,4.003999829E-1,-1.723974943E0
2.809546292E0,-4.721750021E-1,3.844499886E-1,-1.769762516E0
2.812048753E0,-5.455999970E-1,4.228124917E-1,-1.854874969E0
2.814550984E0,-5.956500173E-1,4.675000012E-1,-1.983712435E0
2.817053444E0,-6.179249883E-1,4.866124988E-1,-2.092200041E0
2.819555905E0,-6.264500022E-1,4.919750094E-1,-2.180612564E0
2.822058346E0,-6.296125054E-1,5.164499879E-1,-2.263525009E0
2.824560807E0,-6.318125129E-1,5.611374974E-1,-2.343412399E0
2.827063499E0,-6.360750198E-1,6.451500058E-1,-2.424262524E0
2.829565747E0,-6.201249957E-1,7.706875205E-1,-2.528487444E0
2.832068438E0,-5.891875029E-1,9.165750146E-1,-2.644537449E0
2.834570670E0,-5.424374938E-1,1.077175021E0,-2.778599977E0
2.837073361E0,-4.860624969E-1,1.247537494E0,-2.925450087E0
2.839575607E0,-4.072749913E-1,1.412400007E0,-3.093612432E0
2.842078067E0,-3.104749918E-1,1.581662536E0,-3.269200087E0
2.844580505E0,-1.870000064E-1,1.745562434E0,-3.458674908E0
2.847082966E0,-5.609999970E-2,1.907262444E0,-3.658737421E0
2.849585442E0,8.332499862E-2,2.047787428E0,-3.858799934E0
2.852087903E0,2.216500044E-1,2.162737370E0,-4.057762623E0
2.854590365E0,3.599750102E-1,2.259537458E0,-4.254662514E0
2.857092827E0,4.930749834E-1,2.332962513E0,-4.445237637E0
2.859595289E0,6.197124720E-1,2.375587463E0,-4.627150059E0
2.862097751E0,7.272375226E-1,2.387274981E0,-4.794212341E0
2.864600213E0,8.197749853E-1,2.379849911E0,-4.937900066E0
2.867102674E0,9.080500007E-1,2.361700058E0,-5.063437462E0
2.869605135E0,9.836750031E-1,2.329799891E0,-5.163537502E0
2.872107596E0,1.047474980E0,2.280849934E0,-5.227337360E0
2.874610057E0,1.104949951E0,2.214849949E0,-5.265699863E0
2.877112505E0,1.152799964E0,2.124375105E0,-5.263499737E0
2.879614967E0,1.197625041E0,2.014787436E0,-5.215650082E0
2.882117439E0,1.233787537E0,1.886087537E0,-5.119949818E0
2.884619901E0,1.260324955E0,1.712562442E0,-4.980525017E0
2.887122343E0,1.277374983E0,1.499712467E0,-4.799574852E0
2.889624804E0,1.292225003E0,1.272012472E0,-4.593050003E0
2.892127265E0,1.315737486E0,1.035787463E0,-4.392987251E0
2.894629726E0,1.353000045E0,7.834749818E-1,-4.196225166E0
2.897132187E0,1.407174945E0,4.962374866E-1,-3.989700079E0
2.899634574E0,1.470012546E0,1.821874976E-1,-3.759799957E0
2.902137033E0,1.526387453E0,-1.445125043E-1,-3.503362417E0
2.904639495E0,1.569975019E0,-4.712125063E-1,-3.224512577E0
2.907141956E0,1.609437466E0,-7.925499678E-1,-2.931912422E0
2.909644394E0,1.637074947E0,-1.107562542E0,-2.634912491E0
2.912146855E0,1.644500017E0,-1.369362473E0,-2.331724882E0
2.914649317E0,1.640237451E0,-1.581112504E0,-2.033624887E0
2.917151769E0,1.629649997E0,-1.748175025E0,-1.756974936E0
2.919654231E0,1.614799976E0,-1.869587541E0,-1.505900025E0
2.922156679E0,1.597749949E0,-1.945075035E0,-1.294012547E0
2.924659141E0,1.575337529E0,-1.980275035E0,-1.152524948E0
2.927161603E0,1.544537544E0,-1.979174972E0,-1.090787530E0
2.929664011E0,1.512637496E0,-1.950437546E0,-1.091887474E0
2.932166472E0,1.450899959E0,-1.938750029E0,-1.115262508E0
2.934668933E0,1.357262492E0,-1.936550021E0,-1.163112521E0
2.937171394E0,1.265687466E0,-1.887599945E0,-1.253587484E0
2.939673855E0,1.174112439E0,-1.797124982E0,-1.370737433E0
2.942176317E0,1.077312469E0,-1.694000006E0,-1.487749934E0
2.944678779E0,9.772124887E-1,-1.582212448E0,-1.596237540E0
2.947181241E0,8.804125190E-1,-1.449249983E0,-1.696337461E0
2.949683703E0,7.836124897E-1,-1.300199986E0,-1.776087523E0
2.952186165E0,6.909375191E-1,-1.140562534E0,-1.837824941E0
2.954688627E0,5.963374972E-1,-9.724000096E-1,-1.875087500E0
2.957190857E0,5.016000271E-1,-8.021749854E-1,-1.890074968E0
2.959693327E0,4.014999866E-1,-6.308500171E-1,-1.887874961E0
2.962195788E0,2.950749993E-1,-4.584249854E-1,-1.864500046E0
2.964698264E0,1.854874939E-1,-2.817375064E-1,-1.852812529E0
2.967200726E0,9.075000137E-2,-9.872499853E-2,-1.901762486E0
2.969703192E0,-1.031249948E-2,5.981250107E-2,-1.931462526E0
2.972205654E0,-1.230624989E-1,2.142249942E-1,-1.931462526E0
2.974708115E0,-2.380124927E-1,3.662999868E-1,-1.910287499E0
2.977210577E0,-3.444375098E-1,5.121874809E-1,-1.852812529E0
2.979713269E0,-4.476999938E-1,6.494125128E-1,-1.767699957E0
2.982215502E0,-5.478000045E-1,7.771499753E-1,-1.666499972E0
2.984718192E0,-6.434999704E-1,8.888000250E-1,-1.554849982E0
2.987220425E0,-7.393375039E-1,9.792749882E-1,-1.432474971E0
2.989722884E0,-8.222500086E-1,1.049537539E0,-1.305837512E0
2.992225346E0,-9.042000175E-1,1.101650000E0,-1.180162549E0
2.994727813E0,-9.755625129E-1,1.133687496E0,-1.047199965E0
2.997230274E0,-1.035099983E0,1.165587544E0,-9.120374918E-1
2.999732707E0,-1.081987500E0,1.200649977E0,-7.832000256E-1
3.002235168E0,-1.122412443E0,1.235849977E0,-6.619250178E-1
3.004737630E0,-1.151149988E0,1.275174975E0,-5.491750240E-1
3.007240082E0,-1.170262456E0,1.326324940E0,-4.490749836E-1
3.009742468E0,-1.180987477E0,1.382699966E0,-3.607999980E-1
3.012245000E0,-1.184149981E0,1.435912490E0,-2.894375026E-1
3.014747387E0,-1.185250044E0,1.483762503E0,-2.265999913E-1
3.017249923E0,-1.186212540E0,1.533812523E0,-1.616999954E-1
3.019752387E0,-1.180987477E0,1.583862543E0,-9.996250272E-2
3.022254848E0,-1.179887533E0,1.622087479E0,-4.358749837E-2
3.024757310E0,-1.177687526E0,1.646562457E0,7.424999960E-3
3.027259772E0,-1.184149981E0,1.668974996E0,5.857500061E-2
3.029762233E0,-1.200099945E0,1.681762457E0,1.149500012E-1
3.032264694E0,-1.220312476E0,1.671037436E0,1.585374922E-1
3.034767155E0,-1.243687510E0,1.642300010E0,1.926375031E-1
3.037269602E0,-1.272424936E0,1.596512437E0,2.128500044E-1
3.039771988E0,-1.309687495E0,1.539037466E0,2.245374918E-1
3.042274448E0,-1.350112438E0,1.468912482E0,2.245374918E-1
3.044776909E0,-1.391637444E0,1.395487547E0,2.171124965E-1
3.047279371E0,-1.428900003E0,1.323024988E0,2.032250017E-1
3.049781833E0,-1.459699988E0,1.248637438E0,1.852124929E-1
3.052284289E0,-1.483212471E0,1.173012495E0,1.627999991E-1
3.054786751E0,-1.505487442E0,1.093262553E0,1.372250021E-1
3.057289228E0,-1.529000044E0,1.008012533E0,1.032624990E-1
3.059791690E0,-1.545912504E0,9.154750109E-1,6.710000336E-2
3.062294152E0,-1.555537462E0,8.196374774E-1,2.337500080E-2
3.064796614E0,-1.558699965E0,7.196750045E-1,-3.189999983E-2
3.067299075E0,-1.555537462E0,6.238374710E-1,-9.790000319E-2
3.069801536E0,-1.537387490E0,5.313000083E-1,-1.787499934E-1
3.072303997E0,-1.512912512E0,4.547125101E-1,-2.649624944E-1
3.074806458E0,-1.477849960E0,3.833499849E-1,-3.522749841E-1
3.077308920E0,-1.432062507E0,3.110249937E-1,-4.427500069E-1
3.079811382E0,-1.376787543E0,2.470874935E-1,-5.289624929E-1
3.082313843E0,-1.312849998E0,1.821874976E-1,-6.055499911E-1
3.084816305E0,-1.240525007E0,1.172875017E-1,-6.832374930E-1
3.087318767E0,-1.168200016E0,5.348749831E-2,-7.481374741E-1
3.089821224E0,-1.091612458E0,-1.361249946E-2,-8.087750077E-1
3.092323455E0,-1.009662509E0,-8.703749627E-2,-8.577250242E-1
3.094825915E0,-9.255124927E-1,-1.508374959E-1,-8.949875236E-1
3.097328380E0,-8.372374773E-1,-2.105125040E-1,-9.226250052E-1
3.099830842E0,-7.445625067E-1,-2.604250014E-1,-9.418749809E-1
3.102333303E0,-6.477624774E-1,-3.051125109E-1,-9.545249939E-1
3.104835996E0,-5.487625003E-1,-3.338499963E-1,-9.598875046E-1
3.107338228E0,-4.499000013E-1,-3.403125107E-1,-9.567250013E-1
3.109840919E0,-3.444375098E-1,-3.349500000E-1,-9.461374879E-1
3.112343151E0,-2.422749996E-1,-3.264249861E-1,-9.322500229E-1
3.114845842E0,-1.497374922E-1,-3.084124923E-1,-9.174000025E-1
3.117348074E0,-6.668750197E-2,-2.967250049E-1,-8.970500231E-1
3.119850562E0,1.306249946E-2,-2.976875007E-1,-8.736749887E-1
3.122353024E0,7.273750007E-2,-2.881999910E-1,-8.534625173E-1
3.124855476E0,1.216875017E-1,-2.679874897E-1,-8.364124894E-1
3.127357938E0,1.578499973E-1,-2.551999986E-1,-8.247249722E-1
3.129860399E0,1.706375033E-1,-2.518999875E-1,-8.162000179E-1
3.132362861E0,1.674750000E-1,-2.561624944E-1,-8.119375110E-1
3.134865323E0,1.387374997E-1,-2.754124999E-1,-7.981874943E-1
3.137367785E0,6.847500056E-2,-3.499374986E-1,-7.544624805E-1
3.139870233E0,-2.626249939E-2,-4.510000050E-1,-6.800749898E-1
3.142372695E0,-1.167374998E-1,-5.339124799E-1,-5.970249772E-1
3.144875156E0,-1.933249980E-1,-5.893250108E-1,-5.108125210E-1
3.147377598E0,-2.646875083E-1,-6.223250031E-1,-4.140124917E-1
3.149880059E0,-3.273875117E-1,-6.308500171E-1,-3.224374950E-1
3.152382520E0,-3.731749952E-1,-6.126999855E-1,-2.245374918E-1
3.154884982E0,-4.008125067E-1,-5.711749792E-1,-1.106875017E-1
3.157387444E0,-4.115374982E-1,-5.094375014E-1,8.524999954E-3
3.159889906E0,-4.030124843E-1,-4.317499995E-1,1.319999993E-1
3.162392368E0,-3.870624900E-1,-3.562625051E-1,2.756874859E-1
3.164894753E0,-3.668499887E-1,-2.945249975E-1,4.416500032E-1
3.167397212E0,-3.434749842E-1,-2.381500006E-1,6.172375083E-1
3.169899751E0,-3.147374988E-1,-1.827374995E-1,8.087750077E-1
3.172402162E0,-2.741749883E-1,-1.231999993E-1,1.015300035E0
3.174904698E0,-2.083124965E-1,-4.331250116E-2,1.231312513E0
3.177407085E0,-1.039500013E-1,8.332499862E-2,1.428212523E0
3.179909573E0,3.657500073E-2,2.407625020E-1,1.637762547E0
3.182412035E0,2.036374956E-1,3.855499923E-1,1.897500038E0
3.184914496E0,4.185499847E-1,5.908374786E-1,2.195462465E0
3.187416958E0,6.888750196E-1,8.494749665E-1,2.528625011E0
3.189919419E0,1.010212541E0,1.133687496E0,2.876499891E0
3.192421919E0,1.357125044E0,1.424224973E0,3.223550081E0
3.194924381E0,1.714762449E0,1.686987519E0,3.554512501E0
3.197426843E0,2.048887491E0,1.889250040E0,3.840787411E0
3.199929305E0,2.342587471E0,2.038162470E0,4.081274986E0
3.202431767E0,2.590637445E0,2.141424894E0,4.268549919E0
3.204934229E0,2.798125029E0,2.192574978E0,4.410037518E0
3.207436690E0,2.965187550E0,2.207424879E0,4.515500069E0
3.209939151E0,3.101449966E0,2.202062607E0,4.593187332E0
3.212441612E0,3.200449944E0,2.163837433E0,4.649562359E0
3.214944063E0,3.268512487E0,2.080787420E0,4.671837330E0
3.217446524E0,3.314300060E0,1.975462437E0,4.666612625E0
3.219948986E0,3.348262548E0,1.855149984E0,4.639937401E0
3.222451444E0,3.378099918E0,1.722187519E0,4.579299927E0
3.224953906E0,3.403675079E0,1.587987542E0,4.485662460E0
3.227456368E0,3.421687365E0,1.459287524E0,4.357924938E0
3.229958589E0,3.436675072E0,1.344337463E0,4.201449871E0
3.232461049E0,3.451524973E0,1.236812472E0,3.999325037E0
3.234963510E0,3.465412378E0,1.142212510E0,3.747149944E0
3.237465972E0,3.476000071E0,1.081437469E0,3.459774971E0
3.239968433E0,3.478199959E0,1.041012526E0,3.143662453E0
3.242470895E0,3.471737385E0,1.016537547E0,2.803075075E0
3.244973357E0,3.452625036E0,1.009112477E0,2.443374872E0
3.247475819E0,3.412199974E0,1.030424953E0,2.080512524E0
3.249978281E0,3.347300053E0,1.086799979E0,1.744187474E0
3.252480743E0,3.264250040E0,1.180437446E0,1.453649998E0
3.254983205E0,3.158925056E0,1.295387506E0,1.210000038E0
3.257485680E0,3.037512541E0,1.431650043E0,1.009937525E0
3.259988141E0,2.896024942E0,1.571074963E0,8.525000215E-1
3.262490612E0,2.741750002E0,1.717924953E0,7.427750230E-1
3.264993073E0,2.578949928E0,1.873299956E0,6.641250253E-1
3.267495534E0,2.415050030E0,2.033900023E0,6.055499911E-1
3.269998020E0,2.252249956E0,2.200000048E0,5.682874918E-1
3.272500482E0,2.088350058E0,2.364862442E0,5.523374677E-1
3.275002934E0,1.927612543E0,2.539487600E0,5.543999672E-1
3.277505396E0,1.766875029E0,2.715075016E0,5.768125057E-1
3.280007858E0,1.608337522E0,2.888462543E0,6.183375120E-1
3.282510243E0,1.445537448E0,3.058825016E0,6.875000000E-1
3.285012702E0,1.285899997E0,3.218462467E0,7.768750191E-1
3.287515164E0,1.116637468E0,3.378099918E0,8.822000027E-1
3.290017625E0,9.378874898E-1,3.524950027E0,1.007874966E0
3.292520087E0,7.452499866E-1,3.662174940E0,1.147162437E0
3.295022625E0,5.346000195E-1,3.783449888E0,1.299374938E0
3.297525012E0,3.121249974E-1,3.879287481E0,1.465474963E0
3.300027578E0,7.699999958E-2,3.941025019E0,1.641062498E0
3.302529964E0,-1.753125042E-1,3.961237431E0,1.837962508E0
3.305032501E0,-4.402749836E-1,3.933599949E0,2.043250084E0
3.307534887E0,-7.211874723E-1,3.846287489E0,2.233824968E0
3.310037347E0,-9.978374839E-1,3.689812422E0,2.397725105E0
3.312539813E0,-1.261837482E0,3.481225014E0,2.528625011E0
3.315042275E0,-1.472487450E0,3.225887537E0,2.630787373E0
3.317544736E0,-1.587437510E0,2.920500040E0,2.731849909E0
3.320047226E0,-1.570387483E0,2.571387529E0,2.834012508E0
3.322549688E0,-1.399062514E0,2.176625013E0,2.949924946E0
3.325052150E0,-1.095737457E0,1.755187511E0,3.069137573E0
3.327554612E0,-7.723374963E-1,1.331550002E0,3.172399998E0
3.330057074E0,-5.307499766E-1,9.356874824E-1,3.227812529E0
3.332559536E0,-3.817000091E-1,5.685625076E-1,3.217087507E0
3.335061766E0,-3.156999946E-1,1.918125004E-1,3.159612417E0
3.337564457E0,-3.062124848E-1,-2.008875012E-1,3.067075014E0
3.340066920E0,-3.210625052E-1,-5.850625038E-1,2.948962450E0
3.342569382E0,-3.466374874E-1,-9.266124964E-1,2.811599970E0
3.345071823E0,-3.646500111E-1,-1.204362512E0,2.661587477E0
3.347574285E0,-3.753750026E-1,-1.414049983E0,2.496587515E0
3.350076728E0,-3.913249969E-1,-1.564062476E0,2.325262547E0
3.352579189E0,-4.008125067E-1,-1.658800006E0,2.150774956E0
3.355081650E0,-4.093374908E-1,-1.708850026E0,1.976287484E0
3.357583881E0,-4.135999978E-1,-1.698262453E0,1.800699949E0
3.360086341E0,-4.189625084E-1,-1.645050049E0,1.636800051E0
3.362588802E0,-4.274874926E-1,-1.587574959E0,1.487749934E0
3.365091264E0,-4.391750097E-1,-1.541787505E0,1.361112475E0
3.367593726E0,-4.508624971E-1,-1.500262499E0,1.262112498E0
3.370096187E0,-4.604874849E-1,-1.468362451E0,1.192950010E0
3.372598649E0,-4.625499845E-1,-1.439625025E0,1.148262501E0
3.375101110E0,-4.604874849E-1,-1.415150046E0,1.128049970E0
3.377603572E0,-4.636499882E-1,-1.396999955E0,1.124887466E0
3.380106024E0,-4.732750058E-1,-1.393837452E0,1.131212473E0
3.382608477E0,-4.849624932E-1,-1.402362466E0,1.143037438E0
3.385110939E0,-5.009124875E-1,-1.425737500E0,1.163249969E0
3.387613401E0,-5.157625079E-1,-1.469462514E0,1.181262493E0
3.390115852E0,-5.253875256E-1,-1.526937485E0,1.198312521E0
3.392618313E0,-5.350124836E-1,-1.600362539E0,1.213162541E0
3.395120789E0,-5.317124724E-1,-1.686574936E0,1.218525052E0
3.397623250E0,-5.275874734E-1,-1.782274961E0,1.215362549E0
3.400125712E0,-5.190625191E-1,-1.882375002E0,1.206837535E0
3.402628174E0,-5.072374940E-1,-1.983437538E0,1.194049954E0
3.405130636E0,-4.923875034E-1,-2.085599899E0,1.175899982E0
3.407633021E0,-4.721750021E-1,-2.198349953E0,1.148262501E0
3.410135481E0,-4.499000013E-1,-2.311237574E0,1.119524956E0
3.412637942E0,-4.263874888E-1,-2.420825005E0,1.091887474E0
3.415140404E0,-4.030124843E-1,-2.530412436E0,1.059987545E0
3.417642866E0,-3.848625124E-1,-2.627212524E0,1.031250000E0
3.420145346E0,-3.614875078E-1,-2.716724873E0,1.000312448E0
3.422647808E0,-3.455374837E-1,-2.792212486E0,9.695125222E-1
3.425150346E0,-3.338499963E-1,-2.849687576E0,9.354124665E-1
3.427652733E0,-3.221625090E-1,-2.893275023E0,9.046124816E-1
3.430155269E0,-3.136374950E-1,-2.922012568E0,8.716124892E-1
3.432657636E0,-3.062124848E-1,-2.934799910E0,8.343499899E-1
3.435160077E0,-3.071750104E-1,-2.935899973E0,7.939249873E-1
3.437662539E0,-3.167999983E-1,-2.929574966E0,7.609249949E-1
3.440165000E0,-3.264249861E-1,-2.909224987E0,7.247624993E-1
3.442667462E0,-3.381125033E-1,-2.878424883E0,6.800749898E-1
3.445169924E0,-3.561249971E-1,-2.840062380E0,6.342874765E-1
3.447672386E0,-3.774375021E-1,-2.791112423E0,5.885000229E-1
3.450174848E0,-4.104374945E-1,-2.728412390E0,5.449125171E-1
3.452677310E0,-4.445374906E-1,-2.655950069E0,4.980250001E-1
3.455179772E0,-4.764375091E-1,-2.576200008E0,4.501749873E-1
3.457682233E0,-5.190625191E-1,-2.494250059E0,4.065875113E-1
3.460184492E0,-5.637499690E-1,-2.408037424E0,3.619000018E-1
3.462687182E0,-6.104999781E-1,-2.315500021E0,3.192749918E-1
3.465189415E0,-6.551874876E-1,-2.225024939E0,2.799499929E-1
3.467692081E0,-6.913499832E-1,-2.141974926E0,2.415875047E-1
3.470194545E0,-7.180249691E-1,-2.073912382E0,2.022625059E-1
3.472697006E0,-7.350749969E-1,-2.031287432E0,1.618375033E-1
3.475199464E0,-7.467625141E-1,-1.994024992E0,1.245749965E-1
3.477701926E0,-7.541875243E-1,-1.961025000E0,8.084999770E-2
3.480204387E0,-7.595499754E-1,-1.937649965E0,4.042499885E-2
3.482706618E0,-7.647749782E-1,-1.918537498E0,6.462499965E-3
3.485209077E0,-7.669749856E-1,-1.898324966E0,-2.763750032E-2
3.487711539E0,-7.669749856E-1,-1.864225030E0,-6.063750014E-2
3.490214001E0,-7.669749856E-1,-1.813212514E0,-8.731249720E-2
3.492716462E0,-7.647749782E-1,-1.753537536E0,-1.084875017E-1
3.495218924E0,-7.584499717E-1,-1.696062446E0,-1.351625025E-1
3.497721371E0,-7.541875243E-1,-1.631162524E0,-1.596374959E-1
3.500223833E0,-7.530875206E-1,-1.555675030E0,-1.894749999E-1
3.502726261E0,-7.562500238E-1,-1.478950024E0,-2.276999950E-1
3.505228723E0,-7.573499680E-1,-1.391775012E0,-2.606999874E-1
3.507731160E0,-7.595499754E-1,-1.295937538E0,-2.968625128E-1
3.510233622E0,-7.573499680E-1,-1.190612435E0,-3.352249861E-1
3.512736092E0,-7.573499680E-1,-1.075662494E0,-3.713875115E-1
3.515238553E0,-7.573499680E-1,-9.575499892E-1,-4.086500108E-1
3.517741014E0,-7.627124786E-1,-8.414999843E-1,-4.459125102E-1
3.520243475E0,-7.680749893E-1,-7.330124974E-1,-4.831750095E-1
3.522745937E0,-7.786625028E-1,-6.340125203E-1,-5.161749721E-1
3.525248399E0,-7.925499678E-1,-5.446375012E-1,-5.501375198E-1
3.527750861E0,-8.127624989E-1,-4.658499956E-1,-5.810750127E-1
3.530253246E0,-8.381999731E-1,-3.946250081E-1,-6.109125018E-1
3.532755706E0,-8.626750112E-1,-3.317874968E-1,-6.363499761E-1
3.535258167E0,-8.893499970E-1,-2.689499855E-1,-6.608250141E-1
3.537760629E0,-9.201499820E-1,-2.105125040E-1,-6.852999926E-1
3.540263086E0,-9.499874711E-1,-1.604624987E-1,-7.034500241E-1
3.542765547E0,-9.787250161E-1,-1.146750003E-1,-7.214624882E-1
3.545268005E0,-1.006362438E0,-7.741250098E-2,-7.396125197E-1
3.547770467E0,-1.036200047E0,-4.757500067E-2,-7.598249912E-1
3.550272929E0,-1.060675025E0,-1.787500083E-2,-7.811374664E-1
3.552775410E0,-1.081987500E0,7.699999958E-3,-8.002499938E-1
3.555277872E0,-1.102200031E0,3.011249937E-2,-8.204625249E-1
3.557780333E0,-1.121312499E0,4.496249929E-2,-8.397125006E-1
3.560282818E0,-1.136299968E0,5.884999782E-2,-8.556625247E-1
3.562785279E0,-1.151149988E0,7.150000334E-2,-8.673499823E-1
3.565287721E0,-1.165037513E0,8.222500235E-2,-8.779374957E-1
3.567790182E0,-1.174525023E0,8.855000138E-2,-8.875625134E-1
3.570292644E0,-1.184149981E0,9.171249717E-2,-8.886625171E-1
3.572795106E0,-1.191575050E0,9.927500039E-2,-8.929250240E-1
3.575297568E0,-1.193637490E0,1.087625027E-1,-8.929250240E-1
3.577800030E0,-1.195837498E0,1.204499975E-1,-8.929250240E-1
3.580302492E0,-1.191575050E0,1.311749965E-1,-8.907250166E-1
3.582804954E0,-1.184149981E0,1.396999955E-1,-8.907250166E-1
3.585307415E0,-1.169162512E0,1.502874941E-1,-8.896250129E-1
3.587809876E0,-1.147987485E0,1.673374921E-1,-8.833000064E-1
3.590312327E0,-1.122412443E0,1.779250056E-1,-8.747749925E-1
3.592814788E0,-1.092574954E0,1.875499934E-1,-8.619874716E-1
3.595317249E0,-1.051049948E0,2.046000063E-1,-8.514000177E-1
3.597819701E0,-1.001137495E0,2.259124964E-1,-8.397125006E-1
3.600322163E0,-9.488874674E-1,2.535499930E-1,-8.215624690E-1
3.602824410E0,-8.967750072E-1,2.800875008E-1,-7.959874868E-1
3.605326870E0,-8.414999843E-1,3.088249862E-1,-7.651875019E-1
3.607829331E0,-7.882875204E-1,3.375625014E-1,-7.290250063E-1
3.610331802E0,-7.371374965E-1,3.727625012E-1,-6.906625032E-1
3.612834264E0,-6.903874874E-1,4.237749875E-1,-6.480374932E-1
3.615336725E0,-6.434999704E-1,5.057250261E-1,-6.023874879E-1
3.617839187E0,-6.084374785E-1,5.802500248E-1,-5.534374714E-1
3.620341648E0,-5.891875029E-1,6.525750160E-1,-4.937624931E-1
3.622844110E0,-5.711749792E-1,7.452499866E-1,-4.362874925E-1
3.625346572E0,-5.572875142E-1,8.516749740E-1,-3.778499961E-1
3.627849034E0,-5.424374938E-1,9.655249715E-1,-3.192749918E-1
3.630351496E0,-5.285499692E-1,1.089962482E0,-2.638624907E-1
3.632853958E0,-5.115000010E-1,1.220862508E0,-2.096875012E-1
3.635356419E0,-4.977499843E-1,1.329487443E0,-1.564749926E-1
3.637858871E0,-4.775374830E-1,1.424224973E0,-9.253749996E-2
3.640361332E0,-4.476999938E-1,1.524187446E0,-2.873750031E-2
3.642863802E0,-4.041124880E-1,1.620025039E0,3.616249934E-2
3.645366264E0,-3.423750103E-1,1.695512533E0,1.127500013E-1
3.647868650E0,-2.656500041E-1,1.749825001E0,1.937374920E-1
3.650371110E0,-1.699499935E-1,1.793412447E0,2.894375026E-1
3.652873591E0,-5.073750019E-2,1.823249936E0,3.937999904E-1
3.655376053E0,7.590000331E-2,1.811562538E0,5.119125247E-1
3.657878514E0,1.971749961E-1,1.737037539E0,6.331874728E-1
3.660380985E0,3.026374876E-1,1.622087479E0,7.523999810E-1
3.662883446E0,3.877499998E-1,1.475237489E0,8.514000177E-1
3.665385913E0,4.376625121E-1,1.305974960E0,9.174000025E-1
3.667888375E0,4.515500069E-1,1.114437461E0,9.396749735E-1
3.670390856E0,4.483875036E-1,9.303249717E-1,9.098374844E-1
3.672893318E0,4.228124917E-1,7.739874721E-1,8.354499936E-1
3.675395780E0,3.844499886E-1,6.451500058E-1,7.512999773E-1
3.677898242E0,3.355000019E-1,5.387250185E-1,6.758124828E-1
3.680400703E0,2.770625055E-1,4.556750059E-1,6.076124907E-1
3.682903164E0,2.110625058E-1,3.972375095E-1,5.565999746E-1
3.685405625E0,1.407999992E-1,3.599750102E-1,5.108125210E-1
3.687908086E0,6.737499684E-2,3.227125108E-1,4.820750058E-1
3.690410547E0,-1.787499990E-3,2.982375026E-1,4.587000012E-1
3.692913009E0,-7.204999775E-2,2.854500115E-1,4.331249893E-1
3.695415471E0,-1.326874942E-1,2.822875082E-1,4.054875076E-1
3.697917727E0,-1.870000064E-1,2.886124849E-1,3.767499924E-1
3.700420418E0,-2.209624946E-1,2.971374989E-1,3.374249935E-1
3.702922650E0,-2.380124927E-1,3.045625091E-1,2.862749994E-1
3.705425341E0,-2.263250053E-1,3.045625091E-1,2.224749923E-1
3.707927838E0,-1.944250017E-1,2.939749956E-1,1.468500048E-1
3.710430300E0,-1.380500048E-1,2.748624980E-1,5.541250110E-2
3.712932761E0,-6.132499874E-2,2.567124963E-1,-5.004999787E-2
3.715435223E0,3.547500074E-2,2.387000024E-1,-1.659625024E-1
3.717937684E0,1.472624987E-1,2.268749923E-1,-2.883374989E-1
3.720439915E0,2.696374953E-1,2.259124964E-1,-4.129124880E-1
3.722942404E0,3.951750100E-1,2.396624982E-1,-5.373499990E-1
3.725444865E0,5.260750055E-1,2.631750107E-1,-6.556000113E-1
3.727947327E0,6.569749713E-1,3.003000021E-1,-7.683500051E-1
3.730449802E0,7.804499865E-1,3.440249860E-1,-8.801375031E-1
3.732952264E0,8.878374696E-1,3.907749951E-1,-9.811999798E-1
3.735454726E0,9.836750031E-1,4.430249929E-1,-1.077999949E0
3.737957188E0,1.059162498E0,5.068249702E-1,-1.164212465E0
3.740459660E0,1.113474965E0,5.696625113E-1,-1.239837527E0
3.742962122E0,1.146474957E0,6.195750237E-1,-1.301574945E0
3.745464598E0,1.158162475E0,6.451500058E-1,-1.352587461E0
3.747967059E0,1.135887504E0,6.313999891E-1,-1.383525014E0
3.750469520E0,1.077312469E0,5.494499803E-1,-1.380224943E0
3.752971981E0,9.719874859E-1,4.311999977E-1,-1.330312490E0
3.755474442E0,8.197749853E-1,3.280749917E-1,-1.241899967E0
3.757976903E0,6.505125165E-1,2.461249977E-1,-1.132312536E0
3.760479365E0,4.802874923E-1,1.886499971E-1,-1.007737517E0
3.762981827E0,3.110249937E-1,1.502874941E-1,-8.853625059E-1
3.765484213E0,1.599124968E-1,1.172875017E-1,-7.864999771E-1
3.767986673E0,3.657500073E-2,9.171249717E-2,-7.225624919E-1
3.770489134E0,-6.036249921E-2,6.407500058E-2,-6.843374968E-1
3.772991606E0,-1.284250021E-1,3.437500075E-2,-6.758124828E-1
3.775494067E0,-1.677500010E-1,-1.924999990E-3,-6.960250139E-1
3.777996529E0,-1.816374958E-1,-4.977500066E-2,-7.321875095E-1
3.780498999E0,-1.784749925E-1,-1.146750003E-1,-7.864999771E-1
3.783001538E0,-1.539999992E-1,-1.997874975E-1,-8.460375071E-1
3.785503924E0,-1.113749966E-1,-2.987875044E-1,-9.098374844E-1
3.788006384E0,-5.499999970E-2,-4.072749913E-1,-9.780374765E-1
3.790508846E0,7.837500423E-3,-5.339124799E-1,-1.048300028E0
3.793011307E0,7.479999959E-2,-6.701750159E-1,-1.118425012E0
3.795513769E0,1.407999992E-1,-8.192250133E-1,-1.187587500E0
3.798016226E0,2.036374956E-1,-9.820249677E-1,-1.257850051E0
3.800518688E0,2.611125112E-1,-1.156512499E0,-1.328112483E0
3.803021150E0,3.100624979E-1,-1.338562489E0,-1.395212531E0
3.805523612E0,3.493874967E-1,-1.530099988E0,-1.459012508E0
3.808026074E0,3.877499998E-1,-1.716274977E0,-1.522812486E0
3.810528536E0,4.153875113E-1,-1.907812476E0,-1.585649967E0
3.813030767E0,4.345000088E-1,-2.103612423E0,-1.647387505E0
3.815533457E0,4.409624934E-1,-2.298449993E0,-1.701699972E0
3.818035921E0,4.398624897E-1,-2.497412443E0,-1.748450041E0
3.820538382E0,4.281750023E-1,-2.698575020E0,-1.786812544E0
3.823040839E0,4.111250043E-1,-2.893275023E0,-1.811287522E0
3.825543300E0,3.877499998E-1,-3.085912466E0,-1.827237487E0
3.828045762E0,3.568125069E-1,-3.272224903E0,-1.821874976E0
3.830548223E0,3.271124959E-1,-3.446712494E0,-1.802762508E0
3.833050684E0,3.036000133E-1,-3.602087498E0,-1.771962523E0
3.835552916E0,2.791250050E-1,-3.732987404E0,-1.738962531E0
3.838055394E0,2.674374878E-1,-3.842575073E0,-1.697437525E0
3.840557856E0,2.642749846E-1,-3.934149981E0,-1.654812455E0
3.843060312E0,2.611125112E-1,-4.021325111E0,-1.606962442E0
3.845562774E0,2.642749846E-1,-4.102312565E0,-1.556912541E0
3.848065235E0,2.705999911E-1,-4.170374870E0,-1.509062529E0
3.850567697E0,2.802250087E-1,-4.232112408E0,-1.461212516E0
3.853070158E0,2.961750031E-1,-4.269374847E0,-1.420650005E0
3.855572586E0,3.163875043E-1,-4.277899742E0,-1.393012524E0
3.858075048E0,3.451249897E-1,-4.255487442E0,-1.367437482E0
3.860577510E0,3.801875114E-1,-4.192787647E0,-1.347224951E0
3.863079972E0,4.281750023E-1,-4.083062649E0,-1.342000008E0
3.865582434E0,4.824874997E-1,-3.915999889E0,-1.352587461E0
3.868084896E0,5.462874770E-1,-3.694624901E0,-1.375962496E0
3.870587357E0,6.143500209E-1,-3.419075012E0,-1.414324999E0
3.873089818E0,6.803500056E-1,-3.111487389E0,-1.464375019E0
3.875592279E0,7.324625254E-1,-2.782587528E0,-1.520750046E0
3.878094740E0,7.708249688E-1,-2.430449963E0,-1.589912534E0
3.880597192E0,7.953000069E-1,-2.056862593E0,-1.661275029E0
3.883099579E0,8.016250134E-1,-1.659899950E0,-1.725075006E0
3.885602039E0,7.814124823E-1,-1.249187469E0,-1.772925019E0
3.888104495E0,7.303999662E-1,-8.500249982E-1,-1.798499942E0
3.890606957E0,6.462500095E-1,-4.723125100E-1,-1.795337439E0
3.893109495E0,5.335000157E-1,-1.391499937E-1,-1.766600013E0
3.895611882E0,4.057624936E-1,1.396999955E-1,-1.720812440E0
3.898114418E0,2.557500005E-1,3.876124918E-1,-1.657974958E0
3.900616790E0,9.611249715E-2,5.983999968E-1,-1.584550023E0
3.903119326E0,-4.867500067E-2,7.706875205E-1,-1.500537515E0
3.905621713E0,-1.859000027E-1,9.143750072E-1,-1.406900048E0
3.908124172E0,-3.147374988E-1,1.031525016E0,-1.309962511E0
3.910626625E0,-4.306499958E-1,1.130387545E0,-1.208899975E0
3.913129087E0,-5.413374901E-1,1.211374998E0,-1.117462516E0
3.915631548E0,-6.445999742E-1,1.285762548E0,-1.027950048E0
3.918133991E0,-7.360374928E-1,1.358224988E0,-9.396749735E-1
3.920636453E0,-8.137249947E-1,1.416662455E0,-8.619874716E-1
3.923138915E0,-8.871499896E-1,1.466712475E0,-7.874624729E-1
3.925641357E0,-9.521874785E-1,1.512500048E0,-7.225624919E-1
3.928143819E0,-1.010625005E0,1.556087494E0,-6.650875211E-1
3.930646280E0,-1.062875032E0,1.590187550E0,-6.066499949E-1
3.933148761E0,-1.105362535E0,1.620025039E0,-5.512375236E-1
3.935651222E0,-1.142624974E0,1.645462513E0,-5.011875033E-1
3.938153678E0,-1.174525023E0,1.669937491E0,-4.533374906E-1
3.940656140E0,-1.197899938E0,1.686987519E0,-4.054875076E-1
3.943158602E0,-1.211787462E0,1.700875044E0,-3.682250082E-1
3.945661064E0,-1.228837490E0,1.715724945E0,-3.330250084E-1
3.948163526E0,-1.237362504E0,1.730712533E0,-3.064875007E-1
3.950665988E0,-1.243687510E0,1.752987504E0,-2.862749994E-1
3.953168449E0,-1.249050021E0,1.785987496E0,-2.820124924E-1
3.955670680E0,-1.255375028E0,1.824349999E0,-2.840749919E-1
3.958173140E0,-1.256474972E0,1.871099949E0,-2.958999872E-1
3.960675601E0,-1.254412532E0,1.917987466E0,-3.139125109E-1
3.963178063E0,-1.252212524E0,1.964737535E0,-3.352249861E-1
3.965680524E0,-1.249050021E0,2.007362604E0,-3.574999869E-1
3.968182986E0,-1.249050021E0,2.048887491E0,-3.862375021E-1
3.970685447E0,-1.246850014E0,2.077625036E0,-4.160749912E-1
3.973187918E0,-1.242725015E0,2.094675064E0,-4.459125102E-1
3.975690380E0,-1.244787455E0,2.108424902E0,-4.757499993E-1
3.978192842E0,-1.241624951E0,2.121212482E0,-5.128750205E-1
3.980695295E0,-1.236262441E0,2.124375105E0,-5.523374677E-1
3.983197757E0,-1.227737546E0,2.122312546E0,-5.916625261E-1
3.985700219E0,-1.219212532E0,2.110625029E0,-6.311249733E-1
3.988202675E0,-1.206424952E0,2.090412378E0,-6.672874689E-1
3.990705136E0,-1.189512491E0,2.065937519E0,-6.991875172E-1
3.993207597E0,-1.164899945E0,2.038162470E0,-7.290250063E-1
3.995710043E0,-1.142624974E0,2.009424925E0,-7.555624843E-1
3.998212429E0,-1.119249940E0,1.980687499E0,-7.779750228E-1
4.000714889E0,-1.097937465E0,1.953050017E0,-7.959874868E-1
4.003217427E0,-1.076624990E0,1.917987466E0,-8.087750077E-1
4.005719814E0,-1.056412458E0,1.884987473E0,-8.215624690E-1
4.008222350E0,-1.035099983E0,1.851987481E0,-8.321499825E-1
4.010724737E0,-1.015987515E0,1.809362531E0,-8.364124894E-1
4.013227274E0,-1.003200054E0,1.767974973E0,-8.386124969E-1
4.015729660E0,-9.989374876E-1,1.725350022E0,-8.289874792E-1
4.018232130E0,-9.926124811E-1,1.675300002E0,-8.162000179E-1
4.020734668E0,-9.926124811E-1,1.625249982E0,-7.939249873E-1
4.023237070E0,-9.968749881E-1,1.572037458E0,-7.726125121E-1
4.025739529E0,-1.004299998E0,1.522125006E0,-7.449749708E-1
4.028241991E0,-1.007462502E0,1.478399992E0,-7.225624919E-1
4.030744466E0,-1.014887452E0,1.433712482E0,-7.002875209E-1
4.033246928E0,-1.028774977E0,1.386962533E0,-6.758124828E-1
4.035749390E0,-1.043624997E0,1.341174960E0,-6.470749974E-1
4.038251852E0,-1.061774969E0,1.292225003E0,-6.150375009E-1
4.040754314E0,-1.083087444E0,1.246437550E0,-5.821750164E-1
4.043256776E0,-1.106462479E0,1.208075047E0,-5.491750240E-1
4.045759238E0,-1.127774954E0,1.183599949E0,-5.213999748E-1
4.048261699E0,-1.144687533E0,1.169849992E0,-4.969249964E-1
4.050764160E0,-1.162837505E0,1.167649984E0,-4.789125025E-1
4.053266621E0,-1.188412547E0,1.178375006E0,-4.607625008E-1
4.055769082E0,-1.217149973E0,1.198587537E0,-4.501749873E-1
4.058271543E0,-1.261837482E0,1.261287451E0,-4.459125102E-1
4.060774001E0,-1.343787551E0,1.407174945E0,-4.587000012E-1
4.063276463E0,-1.470425010E0,1.644500017E0,-4.937624931E-1
4.065778925E0,-1.618374944E0,1.959512472E0,-5.299249887E-1
4.068281387E0,-1.784337521E0,2.320174932E0,-5.703499913E-1
4.070783618E0,-1.959924936E0,2.710812569E0,-6.140750051E-1
4.073286078E0,-2.123825073E0,3.088525057E0,-6.545000076E-1
4.075788534E0,-2.268612385E0,3.423749924E0,-6.810374856E-1
4.078290996E0,-2.380262375E0,3.700537443E0,-6.949250102E-1
4.080793476E0,-2.447362423E0,3.912287474E0,-7.002875209E-1
4.083295937E0,-2.481324911E0,4.063399792E0,-6.969875097E-1
4.085798399E0,-2.484625101E0,4.154974937E0,-6.886000037E-1
4.088300847E0,-2.460150003E0,4.195399761E0,-6.789749861E-1
4.090803309E0,-2.411200047E0,4.195399761E0,-6.682500243E-1
4.093305771E0,-2.353724957E0,4.170925140E0,-6.630250216E-1
4.095808199E0,-2.283462524E0,4.127200127E0,-6.491374969E-1
4.098310661E0,-2.199312449E0,4.066562653E0,-6.363499761E-1
4.100813123E0,-2.102512598E0,3.988874912E0,-6.289250255E-1
4.103315584E0,-1.998287439E0,3.894137383E0,-6.300249696E-1
4.105818045E0,-1.884437442E0,3.782487392E0,-6.235625148E-1
4.108320506E0,-1.761924982E0,3.655849934E0,-6.193000078E-1
4.110822967E0,-1.634325027E0,3.520687580E0,-6.246625185E-1
4.113325429E0,-1.503425002E0,3.384424925E0,-6.268625259E-1
4.115827815E0,-1.368262529E0,3.239637375E0,-6.331874728E-1
4.118330342E0,-1.236262441E0,3.100349903E0,-6.374499798E-1
4.120832728E0,-1.123512506E0,3.004512548E0,-6.300249696E-1
4.123335256E0,-1.028774977E0,2.980037451E0,-6.129750013E-1
4.125837642E0,-9.308750033E-1,3.033250093E0,-5.831375122E-1
4.128340107E0,-8.318749666E-1,3.116299868E0,-5.501375198E-1
4.130842645E0,-7.275124788E-1,3.211037397E0,-5.289624929E-1
4.133345060E0,-6.019750237E-1,3.312099934E0,-5.204374790E-1
4.135847597E0,-4.604874849E-1,3.384424925E0,-5.139750242E-1
4.138349983E0,-3.062124848E-1,3.416325092E0,-5.171374679E-1
4.140852443E0,-1.347499937E-1,3.391849995E0,-5.373499990E-1
4.143354904E0,4.509999976E-2,3.300412416E0,-5.640249848E-1
4.145857366E0,2.195875049E-1,3.141737461E0,-6.012874842E-1
4.148359827E0,3.866499960E-1,2.916237593E0,-6.417124867E-1
4.150862289E0,5.366625190E-1,2.634224892E0,-6.863999963E-1
4.153364751E0,6.590374708E-1,2.309587479E0,-7.247624993E-1
4.155867213E0,7.645000219E-1,1.956212521E0,-7.620249987E-1
4.158369685E0,8.464499712E-1,1.585924983E0,-7.991499901E-1
4.160872147E0,9.070875049E-1,1.210274935E0,-8.269249797E-1
4.163374609E0,9.475125074E-1,8.409500122E-1,-8.534625173E-1
4.165877083E0,9.740499854E-1,4.791874886E-1,-8.736749887E-1
4.168379544E0,9.868375063E-1,1.289750040E-1,-8.864625096E-1
4.170882005E0,9.996249676E-1,-2.008875012E-1,-8.960874677E-1
4.173384463E0,1.000725031E0,-5.116375089E-1,-9.035124779E-1
4.175886924E0,9.890375137E-1,-7.936499715E-1,-8.981499672E-1
4.178389161E0,9.634624720E-1,-1.042662501E0,-8.907250166E-1
4.180891851E0,9.272999763E-1,-1.257575035E0,-8.747749925E-1
4.183394084E0,8.783500195E-1,-1.438524961E0,-8.566250205E-1
4.185896544E0,8.218374848E-1,-1.582212448E0,-8.375124931E-1
4.188399005E0,7.548750043E-1,-1.691799998E0,-8.258249760E-1
4.190901467E0,6.740249991E-1,-1.765224934E0,-8.109750152E-1
4.193403928E0,5.846499801E-1,-1.805649996E0,-7.970874906E-1
4.195906390E0,4.845499992E-1,-1.828062534E0,-7.811374664E-1
4.198408851E0,3.812874854E-1,-1.823799968E0,-7.694500089E-1
4.200911313E0,2.781625092E-1,-1.805649996E0,-7.523999810E-1
4.203413775E0,1.737999916E-1,-1.773749948E0,-7.342500091E-1
4.205916237E0,7.369999588E-2,-1.730162501E0,-7.140374780E-1
4.208418699E0,-2.089999989E-2,-1.674749970E0,-6.938250065E-1
4.210921137E0,-1.082125008E-1,-1.615212440E0,-6.736124754E-1
4.213423599E0,-1.859000027E-1,-1.547150016E0,-6.470749974E-1
4.215926074E0,-2.529999912E-1,-1.462999940E0,-6.235625148E-1
4.218428535E0,-3.082749844E-1,-1.368262529E0,-5.927624702E-1
4.220930996E0,-3.455374837E-1,-1.257575035E0,-5.576999784E-1
4.223433382E0,-3.720749915E-1,-1.132037520E0,-5.161749721E-1
4.225935842E0,-3.806000054E-1,-9.968749881E-1,-4.575999975E-1
4.228438380E0,-3.678124845E-1,-8.553875089E-1,-3.884375095E-1
4.230940767E0,-3.284874856E-1,-7.074375153E-1,-3.150124848E-1
4.233443303E0,-2.656500041E-1,-5.531625152E-1,-2.299000025E-1
4.235945690E0,-1.710499972E-1,-4.020499885E-1,-1.351625025E-1
4.238448135E0,-4.015000165E-2,-2.551999986E-1,-3.506249934E-2
4.240950597E0,1.344749928E-1,-1.029874980E-1,6.916250288E-2
4.243453029E0,3.260124922E-1,3.011249937E-2,1.809500009E-1
4.245955491E0,5.335000157E-1,1.226499975E-1,2.937000096E-1
4.248457957E0,7.506124973E-1,1.801249981E-1,4.075500071E-1
4.250960419E0,9.623624682E-1,1.918125004E-1,5.235999823E-1
4.253462895E0,1.165587544E0,1.662375033E-1,6.320874691E-1
4.255965357E0,1.365649939E0,1.141249985E-1,7.418124676E-1
4.258467819E0,1.556224942E0,4.812499881E-2,8.482375145E-1
4.260970281E0,1.741437435E0,-2.213750035E-2,9.546625018E-1
4.263472743E0,1.917024970E0,-8.387500048E-2,1.057787538E0
4.265975204E0,2.094675064E0,-1.231999993E-1,1.164212465E0
4.268477665E0,2.268199921E0,-1.285624951E-1,1.269537449E0
4.270980126E0,2.440624952E0,-9.129999578E-2,1.383525014E0
4.273482587E0,2.608649969E0,-6.187499966E-3,1.496274948E0
4.275985048E0,2.765125036E0,1.172875017E-1,1.613287449E0
4.278487510E0,2.896024942E0,2.450249940E-1,1.733600020E0
4.280989972E0,2.996124983E0,3.599750102E-1,1.848549962E0
4.283492449E0,3.056762457E0,4.430249929E-1,1.948512435E0
4.285994911E0,3.081237555E0,4.877125025E-1,2.045449972E0
4.288497373E0,3.075875044E0,4.993999898E-1,2.127399921E0
4.290999594E0,3.048237562E0,4.652999938E-1,2.194362402E0
4.293502053E0,2.998187542E0,4.067249894E-1,2.250737429E0
4.296004515E0,2.926962376E0,3.247750103E-1,2.296525002E0
4.298506977E0,2.848175049E0,2.301750034E-1,2.335987568E0
4.301009438E0,2.760862589E0,1.280124933E-1,2.369950056E0
4.303511900E0,2.664062500E0,2.048750035E-2,2.398687601E0
4.306014361E0,2.558737516E0,-8.167500049E-2,2.432787418E0
4.308516823E0,2.446949959E0,-1.827374995E-1,2.465787411E0
4.311019285E0,2.338462591E0,-2.870999873E-1,2.497687578E0
4.313521728E0,2.226675034E0,-3.966875076E-1,2.529587507E0
4.316024190E0,2.113787413E0,-5.084750056E-1,2.565749884E0
4.318526652E0,2.001037598E0,-6.180624962E-1,2.593524933E0
4.321029084E0,1.893512487E0,-7.350749969E-1,2.612637520E0
4.323531545E0,1.794649959E0,-8.383374810E-1,2.621162415E0
4.326033991E0,1.700875044E0,-9.266124964E-1,2.610574961E0
4.328536452E0,1.621124983E0,-1.007599950E0,2.591325045E0
4.331038914E0,1.547700047E0,-1.072499990E0,2.566849947E0
4.333541291E0,1.480599999E0,-1.110725045E0,2.527524948E0
4.336043751E0,1.425325036E0,-1.126675010E0,2.481737375E0
4.338546212E0,1.386000037E0,-1.120350003E0,2.429625034E0
4.341048674E0,1.357262492E0,-1.081025004E0,2.367887497E0
4.343551135E0,1.337049961E0,-9.990749955E-1,2.300787449E0
4.346053597E0,1.326324940E0,-8.744999766E-1,2.241250038E0
4.348556059E0,1.319999933E0,-7.265499830E-1,2.188037395E0
4.351058521E0,1.308312535E0,-5.563250184E-1,2.142250061E0
4.353560983E0,1.299787521E0,-3.605250120E-1,2.106087446E0
4.356063445E0,1.286999941E0,-1.285624951E-1,2.089037418E0
4.358565888E0,1.266787529E0,1.502874941E-1,2.078449965E0
4.361068349E0,1.235849977E0,4.663999975E-1,2.073087454E0
4.363570794E0,1.197625041E0,7.984625101E-1,2.063462496E0
4.366073255E0,1.148674965E0,1.140012503E0,2.062500000E0
4.368575716E0,1.086937547E0,1.482662439E0,2.083674908E0
4.371078163E0,1.009250045E0,1.825312495E0,2.108150005E0
4.373580625E0,9.156125188E-1,2.171262503E0,2.137987375E0
4.376083096E0,8.144124746E-1,2.530962467E0,2.170987606E0
4.378585328E0,6.973999739E-1,2.900287390E0,2.201787472E0
4.381088019E0,5.770875216E-1,3.259987593E0,2.235887527E0
4.383590251E0,4.494875073E-1,3.599474907E0,2.276312590E0
4.386092942E0,3.195500076E-1,3.909125090E0,2.320037603E0
4.388595405E0,1.791625023E-1,4.187974930E0,2.364724874E0
4.391097867E0,3.327500075E-2,4.419937611E0,2.410374880E0
4.393600328E0,-1.167374998E-1,4.593325138E0,2.450937510E0
4.396102790E0,-2.699125111E-1,4.700850010E0,2.494524956E0
4.398605021E0,-4.274874926E-1,4.740174770E0,2.529587507E0
4.401107480E0,-5.871250033E-1,4.716799736E0,2.555162430E0
4.403609942E0,-7.339749932E-1,4.641312599E0,2.569050074E0
4.406112385E0,-8.617125154E-1,4.524162292E0,2.573312521E0
4.408614847E0,-9.479249716E-1,4.372087479E0,2.575375080E0
4.411117308E0,-9.840874672E-1,4.176149845E0,2.575375080E0
4.413619784E0,-9.733625054E-1,3.942125082E0,2.570012569E0
4.416122245E0,-9.106624722E-1,3.659012556E0,2.563687563E0
4.418624693E0,-8.031374812E-1,3.324887514E0,2.554062605E0
4.421127155E0,-6.701750159E-1,2.925724983E0,2.536050081E0
4.423629617E0,-5.392749906E-1,2.467025042E0,2.509375095E0
4.426132079E0,-4.360125065E-1,1.946725011E0,2.463587523E0
4.428634541E0,-3.657499850E-1,1.383662462E0,2.408312559E0
4.431137003E0,-3.210625052E-1,8.079500198E-1,2.340250015E0
4.433639464E0,-2.965874970E-1,2.439250052E-1,2.261462450E0
4.436141925E0,-2.849000096E-1,-2.924624979E-1,2.177312374E0
4.438644386E0,-2.763749957E-1,-7.904874682E-1,2.092200041E0
4.441146772E0,-2.613874972E-1,-1.226775050E0,2.005987406E0
4.443649222E0,-2.454375029E-1,-1.590737462E0,1.928300023E0
4.446151683E0,-2.199999988E-1,-1.885537505E0,1.853912473E0
4.448654145E0,-1.879625022E-1,-2.101550102E0,1.783650041E0
4.451156606E0,-1.465750039E-1,-2.239875078E0,1.717649937E0
4.453659068E0,-1.082125008E-1,-2.309037447E0,1.663337469E0
4.456161520E0,-7.204999775E-2,-2.328287601E0,1.615487456E0
4.458663982E0,-4.331250116E-2,-2.313299894E0,1.576162457E0
4.461166444E0,-2.626249939E-2,-2.277137518E0,1.547425032E0
4.463668906E0,-1.883750036E-2,-2.227087498E0,1.535599947E0
4.466171368E0,-2.309999987E-2,-2.169612408E0,1.534637451E0
4.468673830E0,-3.478749841E-2,-2.114337444E0,1.538900018E0
4.471176291E0,-5.073750019E-2,-2.061125040E0,1.547425032E0
4.473678752E0,-7.631249726E-2,-2.007912397E0,1.559112549E0
4.476181213E0,-1.050499976E-1,-1.951537490E0,1.576162457E0
4.478683693E0,-1.337874979E-1,-1.896124959E0,1.592112541E0
4.481186155E0,-1.571625024E-1,-1.840849996E0,1.605862498E0
4.483688387E0,-1.784749925E-1,-1.790799975E0,1.612324953E0
4.486191078E0,-1.986874938E-1,-1.750375032E0,1.611225009E0
4.488693311E0,-2.146375030E-1,-1.717375040E0,1.603799939E0
4.491196001E0,-2.242625058E-1,-1.694962502E0,1.587849975E0
4.493698234E0,-2.285249978E-1,-1.687537432E0,1.564337492E0
4.496200693E0,-2.337500006E-1,-1.686574936E0,1.534637451E0
4.498703385E0,-2.316875011E-1,-1.692899942E0,1.493112445E0
4.501205618E0,-2.316875011E-1,-1.712012529E0,1.451587439E0
4.503708309E0,-2.305874974E-1,-1.743912458E0,1.401537538E0
4.506210550E0,-2.231625021E-1,-1.782274961E0,1.347362518E0
4.508713010E0,-2.124374956E-1,-1.830124974E0,1.294149995E0
4.511215471E0,-2.050125003E-1,-1.880174994E0,1.234475017E0
4.513717933E0,-1.997874975E-1,-1.941912532E0,1.170675039E0
4.516220395E0,-1.933249980E-1,-2.006812572E0,1.100412488E0
4.518722856E0,-1.816374958E-1,-2.075974941E0,1.026987553E0
4.521225318E0,-1.762750000E-1,-2.140875101E0,9.481999874E-1
4.523727780E0,-1.731124967E-1,-2.202612400E0,8.694124818E-1
4.526230242E0,-1.699499935E-1,-2.260087490E0,7.885624766E-1
4.528732704E0,-1.677500010E-1,-2.301612377E0,7.119749784E-1
4.531235175E0,-1.634874940E-1,-2.335712433E0,6.353874803E-1
4.533737636E0,-1.645874977E-1,-2.352762461E0,5.576999784E-1
4.536240097E0,-1.677500010E-1,-2.357987404E0,4.927999973E-1
4.538742558E0,-1.753125042E-1,-2.359087467E0,4.362874925E-1
4.541245019E0,-1.795749962E-1,-2.360187531E0,3.906374872E-1
4.543747496E0,-1.912624985E-1,-2.365412474E0,3.543374836E-1
4.546249958E0,-2.092749923E-1,-2.369674921E0,3.161124885E-1
4.548752344E0,-2.274249941E-1,-2.365412474E0,2.842124999E-1
4.551254803E0,-2.496999949E-1,-2.357987404E0,2.501125038E-1
4.553757260E0,-2.678500116E-1,-2.331449986E0,2.171124965E-1
4.556259721E0,-2.891624868E-1,-2.298449993E0,1.883749962E-1
4.558762183E0,-3.136374950E-1,-2.263249874E0,1.533125043E-1
4.561264625E0,-3.338499963E-1,-2.222825050E0,1.149500012E-1
4.563767087E0,-3.508999944E-1,-2.182399988E0,7.878749818E-2
4.566269549E0,-3.668499887E-1,-2.131387472E0,4.468749836E-2
4.568772059E0,-3.806000054E-1,-2.080237389E0,8.524999954E-3
4.571274521E0,-3.902249932E-1,-2.029224873E0,-2.873750031E-2
4.573776983E0,-3.944875002E-1,-1.970649958E0,-6.806249917E-2
4.576279445E0,-4.019125104E-1,-1.904649973E0,-1.075249985E-1
4.578781906E0,-4.019125104E-1,-1.839749932E0,-1.489125043E-1
4.581284367E0,-3.976500034E-1,-1.779112458E0,-1.841125041E-1
4.583786828E0,-3.955875039E-1,-1.714212537E0,-2.245374918E-1
4.586289289E0,-3.913249969E-1,-1.647112489E0,-2.628999949E-1
4.588791750E0,-3.838999867E-1,-1.584412456E0,-3.042874932E-1
4.591294212E0,-3.806000054E-1,-1.524737477E0,-3.511750102E-1
4.593796449E0,-3.785375059E-1,-1.460937500E0,-4.032875001E-1
4.596299139E0,-3.806000054E-1,-1.394937515E0,-4.629625082E-1
4.598801372E0,-3.870624900E-1,-1.325775027E0,-5.246999860E-1
4.601304062E0,-3.998500109E-1,-1.248087525E0,-5.810750127E-1
4.603806295E0,-4.104374945E-1,-1.174662471E0,-6.353874803E-1
4.606309000E0,-4.263874888E-1,-1.096974969E0,-6.832374930E-1
4.608811464E0,-4.465999901E-1,-1.019287467E0,-7.299875021E-1
4.611313695E0,-4.690124989E-1,-9.468249679E-1,-7.757750154E-1
4.613816385E0,-4.977499843E-1,-8.648750186E-1,-8.162000179E-1
4.616318632E0,-5.359749794E-1,-7.840250134E-1,-8.481000066E-1
4.618821091E0,-5.711749792E-1,-7.031750083E-1,-8.758749962E-1
4.621323553E0,-6.190249920E-1,-6.223250031E-1,-9.035124779E-1
4.623826029E0,-6.626124978E-1,-5.446375012E-1,-9.248250127E-1
4.626328491E0,-7.073000073E-1,-4.647499919E-1,-9.428374767E-1
4.628830952E0,-7.541875243E-1,-4.020499885E-1,-9.620875120E-1
4.631333423E0,-7.999749780E-1,-3.414124846E-1,-9.843624830E-1
4.633835884E0,-8.457624912E-1,-2.849000096E-1,-1.002512455E0
4.636338346E0,-8.925125003E-1,-2.316875011E-1,-1.023825049E0
4.638840808E0,-9.351375103E-1,-1.784749925E-1,-1.044999957E0
4.641343256E0,-9.755625129E-1,-1.220999956E-1,-1.067412496E0
4.643845718E0,-1.012825012E0,-7.631249726E-2,-1.095049977E0
4.646348180E0,-1.045825005E0,-3.162499890E-2,-1.126950026E0
4.648850670E0,-1.072362542E0,1.938750036E-2,-1.161049962E0
4.651353122E0,-1.097937465E0,7.369999588E-2,-1.199412465E0
4.653855583E0,-1.112787485E0,1.280124933E-1,-1.233374953E0
4.656358044E0,-1.123512506E0,1.821874976E-1,-1.272837520E0
4.658860505E0,-1.139462471E0,2.375999987E-1,-1.311062455E0
4.661362891E0,-1.150050044E0,2.961750031E-1,-1.344062448E0
4.663865351E0,-1.157474995E0,3.471874893E-1,-1.380224943E0
4.666367813E0,-1.164899945E0,3.950375021E-1,-1.406900048E0
4.668870274E0,-1.171362519E0,4.397250116E-1,-1.424912453E0
4.671372736E0,-1.171362519E0,4.801499844E-1,-1.426012516E0
4.673875197E0,-1.173424959E0,5.196124911E-1,-1.420650005E0
4.676377659E0,-1.164899945E0,5.663625002E-1,-1.401537538E0
4.678880116E0,-1.137262464E0,6.153125167E-1,-1.368537545E0
4.681382578E0,-1.079787493E0,6.727874875E-1,-1.315325022E0
4.683885040E0,-9.872499704E-1,7.462124825E-1,-1.260049939E0
4.686387521E0,-8.754624724E-1,8.238999844E-1,-1.183325052E0
4.688889982E0,-7.393375039E-1,9.048874974E-1,-1.087625027E0
4.691392443E0,-5.966125131E-1,9.911000133E-1,-9.758374691E-1
4.693894904E0,-4.625499845E-1,1.099587440E0,-8.534625173E-1
4.696397365E0,-3.540624976E-1,1.209174991E0,-7.342500091E-1
4.698899857E0,-2.806375027E-1,1.296487451E0,-5.779125094E-1
4.701402319E0,-2.476374954E-1,1.358224988E0,-4.032875001E-1
4.703904551E0,-2.496999949E-1,1.367712498E0,-2.308624983E-1
4.706407231E0,-2.891624868E-1,1.327287436E0,-8.304999769E-2
4.708909464E0,-3.390749991E-1,1.253862500E0,1.704999991E-2
4.711412154E0,-4.041124880E-1,1.127225041E0,1.021625027E-1
4.713914387E0,-4.690124989E-1,9.527375102E-1,1.872749925E-1
4.716417077E0,-5.222250223E-1,7.697250247E-1,2.597374916E-1
4.718919310E0,-5.552250147E-1,5.961999893E-1,3.341250122E-1
4.721421770E0,-5.519250035E-1,4.641999900E-1,4.023250043E-1
4.723924231E0,-4.987125099E-1,4.185499847E-1,4.735499918E-1
4.726426693E0,-3.933874965E-1,4.675000012E-1,5.608624816E-1
4.728929154E0,-2.572624981E-1,5.865749717E-1,6.459749937E-1
4.731431616E0,-1.145374998E-1,7.430499792E-1,7.342500091E-1
4.733934093E0,2.584999986E-2,9.143750072E-1,7.970874906E-1
4.736436555E0,1.387374997E-1,1.048437476E0,8.525000215E-1
4.738939017E0,2.195875049E-1,1.144274950E0,9.066749811E-1
4.741441512E0,2.705999911E-1,1.219900012E0,9.322500229E-1
4.743943974E0,2.961750031E-1,1.232550025E0,9.290875196E-1
4.746446435E0,2.972750068E-1,1.178375006E0,9.003499746E-1
4.748948896E0,2.876499891E-1,1.095324993E0,8.332499862E-1
4.751451333E0,2.844874859E-1,1.033587456E0,7.279250026E-1
4.753953794E0,2.696374953E-1,1.031525016E0,6.151750088E-1
4.756456255E0,2.344374955E-1,1.077175021E0,5.097125173E-1
4.758958736E0,1.843875051E-1,1.128324986E0,4.192374945E-1
4.761461198E0,1.259499937E-1,1.174112439E0,3.320625126E-1
4.763963651E0,6.957499683E-2,1.219900012E0,2.436500043E-1
4.766466113E0,1.306249946E-2,1.242174983E0,1.607374996E-1
4.768968575E0,-4.441250116E-2,1.232550025E0,8.621250093E-2
4.771470960E0,-9.542500228E-2,1.209174991E0,1.911249943E-2
4.773973419E0,-1.401125044E-1,1.184700012E0,-4.468749836E-2
4.776475881E0,-1.870000064E-1,1.157062531E0,-9.679999948E-2
4.778978342E0,-2.285249978E-1,1.125162482E0,-1.394249946E-1
4.781480804E0,-2.667500079E-1,1.079375029E0,-1.735250056E-1
4.783983265E0,-2.997500002E-1,1.021899939E0,-2.021249980E-1
4.786485732E0,-3.231250048E-1,9.505375028E-1,-2.182125002E-1
4.788988194E0,-3.381125033E-1,8.633624911E-1,-2.245374918E-1
4.791490656E0,-3.433375061E-1,7.558375001E-1,-2.234375030E-1
4.793993117E0,-3.412750065E-1,6.525750160E-1,-2.245374918E-1
4.796495579E0,-3.156999946E-1,5.611374974E-1,-2.393874973E-1
4.798998041E0,-2.732124925E-1,4.823499918E-1,-2.703250051E-1
4.801500502E0,-2.135374993E-1,4.280374944E-1,-3.181749880E-1
4.804002963E0,-1.518000066E-1,4.035624862E-1,-3.724874854E-1
4.806505429E0,-7.741250098E-2,4.024625123E-1,-4.362874925E-1
4.809007890E0,-8.112499490E-3,4.269374907E-1,-5.044875145E-1
4.811510123E0,5.032499880E-2,4.801499844E-1,-5.703499913E-1
4.814012582E0,9.295000136E-2,5.557749867E-1,-6.353874803E-1
4.816515044E0,1.077999994E-1,6.653624773E-1,-6.969875097E-1
4.819017505E0,8.648750186E-2,7.962625027E-1,-7.470374703E-1
4.821519967E0,4.289999977E-2,9.143750072E-1,-8.002499938E-1
4.824022428E0,-4.949999973E-3,9.484750032E-1,-8.566250205E-1
4.826524890E0,-4.015000165E-2,8.601999879E-1,-9.226250052E-1
4.829027332E0,-3.684999794E-2,6.345624924E-1,-9.960500002E-1
4.831529794E0,3.574999981E-3,3.045625091E-1,-1.077999949E0
4.834032256E0,6.104999781E-2,-6.462500244E-2,-1.158849955E0
4.836534728E0,1.194875017E-1,-4.126375020E-1,-1.227049947E0
4.839037190E0,1.843875051E-1,-7.000125051E-1,-1.262112498E0
4.841539652E0,2.546499968E-1,-9.128624797E-1,-1.261012435E0
4.844042114E0,3.366000056E-1,-1.048025012E0,-1.229112506E0
4.846544531E0,4.250124991E-1,-1.121449947E0,-1.173837543E0
4.849046992E0,5.229125023E-1,-1.144824982E0,-1.115262508E0
4.851549453E0,6.165499687E-1,-1.130937457E0,-1.077999949E0
4.854051914E0,7.101874948E-1,-1.084187508E0,-1.060950041E0
4.856554375E0,8.006625175E-1,-1.020249963E0,-1.066312551E0
4.859056837E0,8.878374696E-1,-9.543874860E-1,-1.081162453E0
4.861559224E0,9.740499854E-1,-8.915500045E-1,-1.100412488E0
4.864061760E0,1.049674988E0,-8.414999843E-1,-1.130112529E0
4.866564224E0,1.121999979E0,-8.053374887E-1,-1.157887459E0
4.869066685E0,1.185799956E0,-7.914500237E-1,-1.184424996E0
4.871569142E0,1.238049984E0,-7.968124747E-1,-1.205737472E0
4.874071603E0,1.283837438E0,-8.127624989E-1,-1.223887444E0
4.876574065E0,1.323162436E0,-8.425999880E-1,-1.237637520E0
4.879076424E0,1.357262492E0,-8.830249906E-1,-1.249325037E0
4.881578884E0,1.386962533E0,-9.288125038E-1,-1.257850051E0
4.884081361E0,1.411437511E0,-9.777625203E-1,-1.263212442E0
4.886583822E0,1.432749987E0,-1.028774977E0,-1.270637512E0
4.889086284E0,1.452962518E0,-1.081025004E0,-1.272837520E0
4.891588745E0,1.472074986E0,-1.136299968E0,-1.277099967E0
4.894091207E0,1.485962510E0,-1.187450051E0,-1.282325029E0
4.896593669E0,1.495587468E0,-1.236400008E0,-1.285487533E0
4.899096131E0,1.496549964E0,-1.285349965E0,-1.284525037E0
4.901598593E0,1.493387461E0,-1.332100034E0,-1.283424973E0
4.904101055E0,1.490224957E0,-1.378987551E0,-1.281362534E0
4.906603496E0,1.481699944E0,-1.433162451E0,-1.278062463E0
4.909105957E0,1.466850042E0,-1.485412478E0,-1.277099967E0
4.911608418E0,1.444437504E0,-1.540687442E0,-1.271737456E0
4.914110851E0,1.419962525E0,-1.603525043E0,-1.265275002E0
4.916613313E0,1.386962533E0,-1.670487523E0,-1.262112498E0
4.919115770E0,1.349699974E0,-1.738687515E0,-1.253587484E0
4.921618002E0,1.301849961E0,-1.817474961E0,-1.247262478E0
4.924120466E0,1.247537494E0,-1.902587533E0,-1.244099975E0
4.926622928E0,1.187999964E0,-1.984537482E0,-1.244099975E0
4.929125390E0,1.118837476E0,-2.066487551E0,-1.246162534E0
4.931627851E0,1.040050030E0,-2.145137548E0,-1.250424981E0
4.934130313E0,9.538375139E-1,-2.222825050E0,-1.250424981E0
4.936632774E0,8.590999842E-1,-2.291987419E0,-1.249325037E0
4.939135236E0,7.580375075E-1,-2.354825020E0,-1.246162534E0
4.941637698E0,6.484500170E-1,-2.413399935E0,-1.243000031E0
4.944140160E0,5.377625227E-1,-2.469774961E0,-1.246162534E0
4.946642646E0,4.217124879E-1,-2.519824982E0,-1.245062470E0
4.949145108E0,3.067624867E-1,-2.557087421E0,-1.247262478E0
4.951647569E0,1.876875013E-1,-2.584724903E0,-1.255787492E0
4.954150006E0,6.627500057E-2,-2.601774931E0,-1.260049939E0
4.956652467E0,-5.926249921E-2,-2.601774931E0,-1.270637512E0
4.959154932E0,-1.838375032E-1,-2.583625078E0,-1.282325029E0
4.961657319E0,-3.040125072E-1,-2.534674883E0,-1.290850043E0
4.964159855E0,-4.243249893E-1,-2.465512514E0,-1.296212435E0
4.966662242E0,-5.444999933E-1,-2.378200054E0,-1.291949987E0
4.969164778E0,-6.583499908E-1,-2.265450001E0,-1.280262470E0
4.971667165E0,-7.573499680E-1,-2.115437508E0,-1.267475009E0
4.974169701E0,-8.435624838E-1,-1.930225015E0,-1.256887436E0
4.976672088E0,-9.138249755E-1,-1.714212537E0,-1.241899967E0
4.979174548E0,-9.724000096E-1,-1.476887465E0,-1.216325045E0
4.981677086E0,-1.013787508E0,-1.217149973E0,-1.187587500E0
4.984179473E0,-1.042525053E0,-9.299125075E-1,-1.148262501E0
4.986681937E0,-1.056412458E0,-6.180624962E-1,-1.087625027E0
4.989184399E0,-1.055312514E0,-2.785750031E-1,-1.008837461E0
4.991686860E0,-1.053249955E0,8.002500236E-2,-9.055749774E-1
4.994189299E0,-1.048987508E0,4.493499994E-1,-8.013499975E-1
4.996691760E0,-1.035099983E0,7.973625064E-1,-7.151374817E-1
4.999194217E0,-1.013787508E0,1.077175021E0,-6.374499798E-1
5.001696679E0,-9.787250161E-1,1.280537486E0,-5.779125094E-1
5.004199141E0,-9.351375103E-1,1.429450035E0,-5.332249999E-1
5.006701603E0,-8.904500008E-1,1.538074970E0,-4.980250001E-1
5.009204065E0,-8.403999805E-1,1.616724968E0,-4.714874923E-1
5.011706527E0,-7.935125232E-1,1.667874932E0,-4.512749910E-1
5.014208988E0,-7.445625067E-1,1.702937484E0,-4.437125027E-1
5.016711449E0,-7.030375004E-1,1.727412462E0,-4.384875000E-1
5.019213910E0,-6.637125015E-1,1.741299987E0,-4.416500032E-1
5.021716371E0,-6.253499985E-1,1.755187511E0,-4.459125102E-1
5.024218827E0,-5.913875103E-1,1.767974973E0,-4.544374943E-1
5.026721289E0,-5.637499690E-1,1.772099972E0,-4.714874923E-1
5.029223545E0,-5.424374938E-1,1.774299979E0,-4.894999862E-1
5.031726004E0,-5.222250223E-1,1.768937469E0,-5.097125173E-1
5.034228466E0,-5.062749982E-1,1.755187511E0,-5.278624892E-1
5.036730914E0,-4.923875034E-1,1.734974980E0,-5.458750129E-1
5.039233376E0,-4.796000123E-1,1.702937484E0,-5.619624853E-1
5.041735831E0,-4.732750058E-1,1.666774988E0,-5.788750052E-1
5.044238293E0,-4.710749984E-1,1.627449989E0,-5.948249698E-1
5.046740754E0,-4.679124951E-1,1.582762480E0,-6.076124907E-1
5.049243216E0,-4.699749947E-1,1.543300033E0,-6.193000078E-1
5.051745678E0,-4.753375053E-1,1.503975034E0,-6.278250217E-1
5.054248140E0,-4.838624895E-1,1.463549972E0,-6.437749863E-1
5.056750602E0,-4.987125099E-1,1.420925021E0,-6.565625072E-1
5.059253064E0,-5.179625154E-1,1.380499959E0,-6.641250253E-1
5.061755526E0,-5.402374864E-1,1.333750010E0,-6.758124828E-1
5.064257987E0,-5.626500249E-1,1.283699989E0,-6.917625070E-1
5.066760434E0,-5.871250033E-1,1.237912536E0,-7.119749784E-1
5.069262895E0,-6.147624850E-1,1.185799956E0,-7.279250026E-1
5.071765281E0,-6.414374709E-1,1.128324986E0,-7.492374778E-1
5.074267741E0,-6.711375117E-1,1.072912455E0,-7.640874982E-1
5.076770187E0,-7.041375041E-1,1.012274981E0,-7.822374701E-1
5.079272649E0,-7.360374928E-1,9.453125000E-1,-8.002499938E-1
5.081775106E0,-7.627124786E-1,8.782125115E-1,-8.162000179E-1
5.084277645E0,-7.925499678E-1,8.101499677E-1,-8.300874829E-1
5.086779998E0,-8.222500086E-1,7.376874685E-1,-8.386124969E-1
5.089282458E0,-8.520874977E-1,6.707249880E-1,-8.492000103E-1
5.091784919E0,-8.776624799E-1,6.015625000E-1,-8.556625247E-1
5.094287381E0,-9.084625244E-1,5.409250259E-1,-8.577250242E-1
5.096789842E0,-9.340375066E-1,4.769875109E-1,-8.545625210E-1
5.099292304E0,-9.627749920E-1,4.120875001E-1,-8.471375108E-1
5.101794766E0,-9.904124737E-1,3.546124995E-1,-8.386124969E-1
5.104297228E0,-1.014887452E0,2.961750031E-1,-8.343499899E-1
5.106799690E0,-1.038262486E0,2.396624982E-1,-8.311874866E-1
