"Time (s)","Linear Acceleration x (m/s^2)","Linear Acceleration y (m/s^2)","Linear Acceleration z (m/s^2)"
5.433910100E-2,-1.397480249E0,9.709558487E-1,-1.088809967E-2
5.684156300E-2,-1.212986231E0,9.757868052E-1,-4.361562729E-1
5.934404600E-2,-1.171047926E0,9.569047689E-1,-4.873256683E-1
6.184650800E-2,-1.150251627E0,8.644928932E-1,-5.336093903E-1
6.434896900E-2,-1.195251465E0,7.614428997E-1,-6.656093597E-1
6.685144800E-2,-1.394875050E0,7.168852091E-1,-9.623060226E-1
6.935390900E-2,-1.581141233E0,7.677683830E-1,-1.251569748E0
7.185637100E-2,-1.562091351E0,8.397684097E-1,-1.423620224E0
7.435883200E-2,-1.443709135E0,8.664405346E-1,-1.373497963E0
7.686129400E-2,-1.170709133E0,8.494904041E-1,-1.275398254E0
7.936375600E-2,-8.824787140E-1,7.559181452E-1,-1.241259575E0
8.186624600E-2,-7.168805599E-1,6.947950125E-1,-1.350853920E0
8.436870800E-2,-7.062721252E-1,6.799414158E-1,-1.548374653E0
8.687119700E-2,-7.579779625E-1,6.604447365E-1,-1.752743244E0
8.937365900E-2,-8.458919525E-1,6.564369202E-1,-1.910789490E0
9.187612000E-2,-9.048671722E-1,6.674215794E-1,-2.028154373E0
9.437856000E-2,-1.002657652E0,7.013541460E-1,-2.172092915E0
9.688102100E-2,-1.021230936E0,6.978757381E-1,-2.358830929E0
9.938348200E-2,-1.058664083E0,7.062978745E-1,-2.402728558E0
1.018859370E-1,-1.124327660E0,7.232725620E-1,-2.387664318E0
1.043883990E-1,-1.112848997E0,7.402693033E-1,-2.284518719E0
1.068908610E-1,-1.050488472E0,6.991549730E-1,-2.126222134E0
1.093933410E-1,-9.502363205E-1,7.253249884E-1,-1.938533306E0
1.118958030E-1,-9.352362156E-1,7.424248457E-1,-1.732433319E0
1.143982650E-1,-9.744327068E-1,7.314677238E-1,-1.475019932E0
1.169007360E-1,-1.077069759E0,6.901174784E-1,-1.148468018E0
1.194031970E-1,-1.056237459E0,6.540113688E-1,-6.988182068E-1
1.219056580E-1,-1.168287516E0,5.829113722E-1,-3.467683792E-1
1.244081190E-1,-1.267287493E0,5.199114084E-1,2.928161621E-2
1.269105800E-1,-1.437237501E0,4.389115572E-1,3.811817169E-1
1.294130410E-1,-2.620287657E0,-4.859886169E-1,1.011181831E0
1.319155030E-1,-2.076237440E0,-2.339885235E-1,1.171231270E0
1.344179650E-1,-1.051287413E0,3.979614973E-1,1.341181755E0
1.369204270E-1,-5.702373981E-1,8.220115900E-1,1.921231270E0
1.394228880E-1,-3.891928196E-1,1.017692447E0,2.317420006E0
1.419253500E-1,-6.233668327E-1,1.046638012E0,2.463882446E0
1.444278310E-1,-8.134658337E-1,9.158135653E-1,2.624974251E0
1.469302920E-1,-9.578342438E-1,7.546073198E-1,2.817785263E0
1.494327530E-1,-1.121326447E0,6.122490168E-1,2.799318314E0
1.519352410E-1,-1.158617973E0,4.661246538E-1,2.684654236E0
1.544377020E-1,-1.253717899E0,4.110745192E-1,2.464604378E0
1.569401630E-1,-1.205718040E0,3.941246271E-1,2.162654877E0
1.594426250E-1,-1.071617842E0,3.270746469E-1,1.659704208E0
1.619450870E-1,-9.255995750E-1,2.696297169E-1,1.069837570E0
1.644475490E-1,-8.968460560E-1,2.025437355E-1,5.613546371E-1
1.669500590E-1,-8.920679092E-1,1.492776871E-1,4.518508911E-2
1.694525210E-1,-8.521981239E-1,-1.353430748E-2,-2.670688629E-1
1.719549830E-1,-9.190981388E-1,-5.448424816E-2,-5.691690445E-1
1.744574440E-1,-9.211981297E-1,-5.943417549E-2,-8.061685562E-1
1.769599050E-1,-8.611981869E-1,-4.053425789E-2,-9.690685272E-1
1.794623660E-1,-7.572212219E-1,-7.361078262E-2,-1.054833412E0
1.819648310E-1,-5.774040222E-1,-1.542268991E-1,-1.091031551E0
1.844672920E-1,-3.249685764E-1,-1.662613153E-1,-1.196921349E0
1.869697540E-1,-1.582801342E-1,-2.340450287E-1,-1.199875355E0
1.894722210E-1,1.937794685E-2,-2.923667431E-1,-1.178212643E0
1.919746830E-1,1.192181110E-1,-3.432623148E-1,-1.214282990E0
1.944771450E-1,1.580073833E-1,-3.334240913E-1,-1.201752186E0
1.969796170E-1,1.709425449E-1,-3.491009474E-1,-1.156828880E0
1.994820790E-1,2.477519512E-1,-3.999589682E-1,-1.095412731E0
2.019844630E-1,2.604813576E-1,-4.382362366E-1,-1.086719513E0
2.044869130E-1,2.106521130E-1,-4.241782427E-1,-1.064649105E0
2.069894510E-1,2.331600189E-1,-4.418056011E-1,-9.611172676E-1
2.094918380E-1,2.648940086E-1,-3.630555868E-1,-8.224630356E-1
2.119943650E-1,2.578787804E-1,-3.149321079E-1,-7.144804001E-1
2.144967520E-1,3.046386242E-1,-3.336650133E-1,-5.854825974E-1
2.169992890E-1,3.246068954E-1,-2.531566620E-1,-5.105018616E-1
2.195016460E-1,7.628254890E-1,1.709485054E-2,-6.040639877E-1
2.220041830E-1,2.718756199E-1,-6.195521355E-2,-5.010137558E-1
2.245065690E-1,-4.091246128E-1,-2.079050541E-1,-2.470636368E-1
2.270091060E-1,-6.191246510E-1,-1.978552341E-1,-3.196334839E-2
2.295115690E-1,-6.101243496E-1,-1.069550514E-1,-4.396343231E-2
2.320140310E-1,-5.162246227E-1,-8.085513115E-2,-1.201343536E-2
2.345164920E-1,-3.201744556E-1,-3.795504570E-2,2.803611755E-2
2.370188770E-1,-1.331245899E-1,-3.090524673E-2,-2.401351929E-2
2.395214130E-1,1.238155365E-1,-1.634137630E-1,9.592247009E-2
2.420238100E-1,5.857038498E-2,-1.889698505E-1,3.567695618E-3
2.445263460E-1,-3.712511063E-2,-2.429790497E-1,-5.444526672E-2
2.470288100E-1,6.512665749E-2,-2.785689831E-1,-1.709232330E-1
2.495312580E-1,4.107761383E-2,-3.057026863E-1,-2.631826401E-1
2.520337190E-1,-3.721666336E-2,-3.615748882E-1,-3.281793594E-1
2.545361810E-1,-6.161212921E-2,-3.997914791E-1,-3.066654205E-1
2.570386420E-1,-8.392858505E-2,-4.384436607E-1,-3.028087616E-1
2.595411030E-1,4.789686203E-2,-3.611018658E-1,-4.332447052E-1
2.620435590E-1,1.203236580E-1,-3.943362236E-1,-6.457538605E-1
2.645460200E-1,6.309604645E-2,-4.625253677E-1,-6.966719627E-1
2.670484810E-1,8.004617691E-2,-5.606253147E-1,-7.107715607E-1
2.695508680E-1,1.586732864E-1,-7.311232090E-1,-6.272149086E-1
2.720534040E-1,3.386733532E-1,-7.930731773E-1,-6.582646370E-1
2.745558680E-1,5.776233673E-1,-8.340232372E-1,-7.133145332E-1
2.770583300E-1,6.907234192E-1,-9.111232758E-1,-7.562146187E-1
2.795607140E-1,4.726233482E-1,-1.033073187E0,-6.342644691E-1
2.820631740E-1,1.636233330E-1,-1.076123238E0,-4.442148209E-1
2.845656350E-1,1.207876205E-1,-1.028860211E0,-3.323020935E-1
2.870681020E-1,7.312965393E-2,-9.828641415E-1,-2.534837723E-1
2.895705630E-1,5.247783661E-2,-9.453325272E-1,-2.448568344E-1
2.920730390E-1,1.861572266E-1,-9.155635834E-1,-2.075233459E-1
2.945755000E-1,2.229571342E-1,-8.540872335E-1,-1.658239365E-1
2.970779620E-1,1.678347588E-1,-9.157478809E-1,-8.205986023E-2
2.995804530E-1,2.271494865E-1,-9.481678009E-1,2.476978302E-2
3.020829150E-1,1.811752319E-1,-9.335563183E-1,9.052181244E-2
3.045853770E-1,1.298680305E-1,-9.437000751E-1,1.541547775E-1
3.070878390E-1,1.868448257E-1,-9.119901657E-1,2.749938965E-1
3.095903010E-1,3.447947502E-1,-8.858901262E-1,2.940444946E-1
3.120927620E-1,3.708946705E-1,-8.909901381E-1,2.340440750E-1
3.145952230E-1,3.498947620E-1,-9.338901043E-1,1.980447769E-1
3.170976840E-1,3.327946663E-1,-9.548901320E-1,1.089439392E-1
3.196001450E-1,3.447947502E-1,-1.053890109E0,-1.006126404E-3
3.221026060E-1,4.647946358E-1,-1.084940195E0,-2.039556503E-1
3.246050680E-1,5.478947163E-1,-1.122890115E0,-3.410558701E-1
3.271076060E-1,5.709552765E-1,-1.139894962E0,-4.481482506E-1
3.296099930E-1,5.924160480E-1,-1.203774452E0,-5.189371109E-1
3.321124580E-1,6.970922947E-1,-1.217172861E0,-5.978817940E-1
3.346149190E-1,7.381231785E-1,-1.252280951E0,-5.926885605E-1
3.371173810E-1,8.104407787E-1,-1.276663780E0,-6.185030937E-1
3.396198130E-1,7.820904255E-1,-1.264734864E0,-6.412291527E-1
3.421222650E-1,7.302153111E-1,-1.277108312E0,-6.479148865E-1
3.446248030E-1,5.836977959E-1,-1.269018769E0,-6.735591888E-1
3.471271900E-1,4.918701649E-1,-1.216728806E0,-6.023426056E-1
3.496297260E-1,5.977456570E-1,-1.155560851E0,-5.978302956E-1
3.521321180E-1,5.634560585E-1,-1.048387289E0,-6.667222977E-1
3.546346540E-1,3.903560638E-1,-1.029337287E0,-5.417723656E-1
3.571370410E-1,2.798929214E-1,-9.784967899E-1,-3.244609833E-1
3.596395110E-1,2.742433548E-2,-8.750902414E-1,5.980300903E-2
3.621419720E-1,6.151199341E-3,-7.514562607E-1,3.972702026E-1
3.646444340E-1,8.217048645E-2,-6.352661848E-1,5.503187180E-1
3.671468950E-1,4.917049408E-2,-5.872660875E-1,5.453691483E-1
3.696493570E-1,-2.282953262E-2,-5.823161602E-1,5.483684540E-1
3.721518190E-1,7.317018509E-2,-6.183161736E-1,5.074186325E-1
3.746542810E-1,1.091704369E-1,-6.663161516E-1,5.003690720E-1
3.771567430E-1,9.912014008E-2,-7.173161507E-1,5.524187088E-1
3.796592050E-1,1.610703468E-1,-7.843661308E-1,5.173187256E-1
3.821616670E-1,2.810702324E-1,-8.773661852E-1,4.024190903E-1
3.846641320E-1,4.380087852E-1,-1.038698554E0,4.203281403E-1
3.871665930E-1,6.286165714E-1,-1.295195222E0,4.272603989E-1
3.896690400E-1,6.757225990E-1,-1.597923756E0,4.376592636E-1
3.921715010E-1,7.287979126E-1,-1.895799398E0,4.385757446E-1
3.946739620E-1,7.939884663E-1,-2.266377687E0,5.703697205E-1
3.971764480E-1,7.586758137E-1,-2.644500971E0,9.897680283E-1
3.996789100E-1,6.384024620E-1,-2.965409994E0,1.064663887E0
4.021813820E-1,5.524196625E-1,-3.004564762E0,7.949790955E-1
4.046838440E-1,5.634984970E-1,-2.686187983E0,5.787782669E-1
4.071863060E-1,5.520451069E-1,-2.301834822E0,2.874660492E-1
4.096887810E-1,5.524892807E-1,-1.898467898E0,-7.858848572E-2
4.121912420E-1,5.254893303E-1,-1.505467892E0,-3.325386047E-1
4.146937030E-1,5.545892715E-1,-1.277467847E0,-8.015890121E-1
4.171961640E-1,6.955893040E-1,-1.150567889E0,-1.106538773E0
4.196986260E-1,6.835892200E-1,-1.014517784E0,-1.022538662E0
4.222010880E-1,7.245392799E-1,-1.007467866E0,-8.926386833E-1
4.247035500E-1,8.494892120E-1,-1.179517865E0,-5.455389023E-1
4.272060120E-1,9.424893856E-1,-1.263517857E0,-2.125387192E-1
4.297084740E-1,1.032252073E0,-1.424739718E0,-4.761791229E-2
4.322109350E-1,1.097218513E0,-1.560666561E0,3.167762756E-1
4.347134060E-1,1.152832747E0,-1.694306374E0,6.726760864E-1
4.372158670E-1,1.177093506E0,-1.738055348E0,8.156404495E-1
4.397183280E-1,1.186020851E0,-1.813045740E0,9.853267670E-1
4.422207900E-1,1.172794342E0,-1.852368593E0,1.013908386E0
4.447232520E-1,1.785094261E0,-1.961177826E0,8.499889374E-1
4.472257180E-1,2.363129616E0,-2.154382706E0,7.397794724E-1
4.497281800E-1,1.964018822E0,-2.652688742E0,9.008092880E-1
4.522306420E-1,1.995069027E0,-3.452638865E0,1.271908760E0
4.547331030E-1,1.310019016E0,-2.585638762E0,1.523909569E0
4.572355640E-1,9.240689278E-1,-1.429588795E0,1.267859459E0
4.597380250E-1,6.906890869E-2,-3.756886721E-1,1.425808907E0
4.622404860E-1,-4.070310593E-1,9.636139870E-2,1.463909149E0
4.647429470E-1,3.306865692E-2,3.336143494E-2,1.113809586E0
4.672454090E-1,6.800189018E-1,-4.455887079E-1,4.728593826E-1
4.697478710E-1,1.494994164E0,-1.119903088E0,-3.015971184E-1
4.722503190E-1,2.100532293E0,-1.555327177E0,-1.229015827E0
4.747527810E-1,2.322685480E0,-1.707430363E0,-1.630245686E0
4.772552430E-1,2.174106836E0,-1.534928560E0,-1.694348335E0
4.797576910E-1,2.533827782E0,-1.248261094E0,-1.432694435E0
4.822601520E-1,3.681548595E0,-1.286036730E0,-1.121679306E0
4.847626030E-1,4.672874928E0,-1.686535120E0,-1.478839874E0
4.872650640E-1,5.483174324E0,-5.461976528E-1,-1.426326275E0
4.897675060E-1,5.153998852E0,1.043684483E-1,-1.718285561E0
4.922699670E-1,3.502881050E0,3.296079636E-1,-2.236154079E0
4.947722000E-1,2.721981049E0,4.536578655E-1,-2.925104141E0
4.972748910E-1,2.041881084E0,3.746078014E-1,-3.663104534E0
4.997771230E-1,1.900881052E0,4.865789413E-2,-4.413104057E0
5.022798140E-1,1.869981050E0,-3.173422813E-1,-5.208104134E0
5.047822770E-1,1.842981100E0,-7.002921104E-1,-5.919104576E0
5.072847390E-1,1.687880993E0,-1.091342211E0,-6.216104507E0
5.097872000E-1,1.600880861E0,-1.366292238E0,-7.212104797E0
5.122896620E-1,1.847908735E0,-1.424715877E0,-9.029650688E0
5.147921320E-1,2.338934422E0,-1.513702750E0,-9.393489838E0
5.172945940E-1,2.587477446E0,-1.713669538E0,-9.515203476E0
5.197970550E-1,2.853213310E0,-1.804490089E0,-9.579137802E0
5.222995310E-1,3.272419453E0,-2.067171097E0,-9.822653770E0
5.248019920E-1,4.169471264E0,-3.202651024E0,-1.080959129E1
5.273044530E-1,4.044796944E0,-3.433883429E0,-1.122445965E1
5.298068900E-1,3.640037060E0,-3.392096519E0,-1.023244667E1
5.323093520E-1,3.588047981E0,-3.680318356E0,-9.502819061E0
5.348118140E-1,3.320129871E0,-3.775860310E0,-8.948092461E0
5.373142760E-1,3.269535065E0,-3.902260780E0,-8.757748604E0
5.398167480E-1,3.324867725E0,-4.102241993E0,-8.688443184E0
5.423192090E-1,3.293817520E0,-4.284192085E0,-8.585392952E0
5.448216700E-1,3.288867712E0,-4.584192276E0,-8.475442886E0
5.473241310E-1,3.281817675E0,-4.843242168E0,-8.147393227E0
5.498265920E-1,3.216867685E0,-5.049192429E0,-7.628393173E0
5.523288250E-1,3.125817776E0,-5.334192276E0,-6.900443077E0
5.548312840E-1,2.960817575E0,-5.635242462E0,-6.406342983E0
5.573337460E-1,2.958867550E0,-5.927142143E0,-5.999392986E0
5.598362070E-1,3.364684820E0,-5.721323013E0,-5.424055576E0
5.623386690E-1,3.663695812E0,-6.023780823E0,-4.832458496E0
5.648411300E-1,4.164695740E0,-6.342830658E0,-4.267558098E0
5.673435920E-1,4.682476997E0,-6.539747238E0,-3.581843376E0
5.698460540E-1,5.291018486E0,-6.854623318E0,-3.034765244E0
5.723485160E-1,5.861323833E0,-7.165753365E0,-2.478749752E0
5.748509780E-1,6.421067715E0,-7.338778019E0,-1.695231915E0
5.773534400E-1,6.709519863E0,-7.564707756E0,-6.371431351E-1
5.798561210E-1,6.892121315E0,-7.734981060E0,3.176727295E-1
5.823583440E-1,6.837814331E0,-7.789819241E0,1.146102905E0
5.848610350E-1,5.990447044E0,-7.684474945E0,2.082245827E0
5.873632670E-1,4.628770828E0,-7.467785358E0,3.008258820E0
5.898659530E-1,3.211429358E0,-7.249664783E0,3.327710152E0
5.923681850E-1,2.313379288E0,-7.268714905E0,3.159709930E0
5.948708760E-1,1.836379290E0,-7.402665138E0,2.639659882E0
5.973731090E-1,1.838479280E0,-7.565714836E0,2.407760620E0
5.998757990E-1,2.020429134E0,-7.668614864E0,2.397710800E0
6.023782620E-1,2.016379356E0,-7.479615211E0,1.911710739E0
6.048804930E-1,1.972429276E0,-7.045664787E0,1.202660561E0
6.073831840E-1,1.987429142E0,-6.514665127E0,5.177602768E-1
6.098854160E-1,2.284619331E0,-5.307625294E0,1.398701668E-1
6.123881070E-1,2.214915276E0,-4.819465637E0,-5.058722496E-1
6.148903440E-1,2.026365519E0,-4.456247330E0,-1.209803581E0
6.173928040E-1,1.852124214E0,-4.168492317E0,-1.799864769E0
6.198952690E-1,1.718738556E0,-3.960637093E0,-2.370219231E0
6.223977310E-1,1.535005093E0,-3.909634829E0,-2.917024136E0
6.249001930E-1,1.373220444E0,-3.765064716E0,-3.298983097E0
6.274026400E-1,1.162738323E0,-3.767070055E0,-3.604314804E0
6.299051020E-1,9.572067261E-1,-3.856366396E0,-3.865034103E0
6.324075640E-1,7.633361816E-1,-3.984419107E0,-4.078109741E0
6.349100070E-1,5.814590454E-1,-4.152955532E0,-4.187318802E0
6.374124690E-1,3.137879372E-1,-4.331709862E0,-4.266098976E0
6.399149310E-1,1.377325058E-1,-4.303923130E0,-4.246504784E0
6.424173920E-1,-1.403675079E-1,-4.528923035E0,-4.256554604E0
6.449198530E-1,-5.042676926E-1,-4.730972767E0,-4.246504784E0
6.474223140E-1,-8.273677826E-1,-4.840922832E0,-4.189504623E0
6.499247750E-1,-1.165317535E0,-4.964972973E0,-4.127554893E0
6.524272370E-1,-1.551267624E0,-5.094872952E0,-4.009504795E0
6.549296990E-1,-1.919367313E0,-5.139873028E0,-3.961504698E0
6.574321610E-1,-2.298267841E0,-5.271872997E0,-3.913504839E0
6.599346080E-1,-2.505396843E0,-4.636218071E0,-3.582122326E0
6.624370700E-1,-2.778503895E0,-4.474323273E0,-3.382431269E0
6.649395360E-1,-3.076683998E0,-4.482787609E0,-3.269875050E0
6.674419970E-1,-3.333788872E0,-4.327209949E0,-3.083926201E0
6.699444580E-1,-3.475183010E0,-4.141914845E0,-2.931850910E0
6.724469380E-1,-3.509799004E0,-4.019561768E0,-2.721485615E0
6.749493990E-1,-3.492508411E0,-3.950349331E0,-2.522860050E0
6.774518610E-1,-3.527233124E0,-3.878138304E0,-2.302680492E0
6.799543280E-1,-3.525066853E0,-3.749601841E0,-2.037715435E0
6.824567900E-1,-3.530214310E0,-3.856864691E0,-1.816981316E0
6.849592470E-1,-3.546001434E0,-3.793883801E0,-1.538478851E0
6.874617090E-1,-3.639671326E0,-3.880660772E0,-1.309417248E0
6.899641710E-1,-3.809154510E0,-3.949943781E0,-1.170277596E0
6.924666320E-1,-4.041204453E0,-4.009943962E0,-1.043377399E0
6.949690930E-1,-4.240254402E0,-4.040993690E0,-9.713773727E-1
6.974715540E-1,-4.453254700E0,-4.057943344E0,-8.972773552E-1
6.999740150E-1,-4.613154411E0,-4.086894035E0,-8.633775711E-1
7.024764760E-1,-4.743204117E0,-4.148993492E0,-8.942775726E-1
7.049789380E-1,-4.941205025E0,-4.254893303E0,-9.263772964E-1
7.074814000E-1,-5.155254364E0,-4.316993713E0,-1.043377399E0
7.099838620E-1,-5.436456203E0,-3.717468977E0,-7.549695969E-1
7.124863380E-1,-5.822764874E0,-3.748104095E0,-8.461837769E-1
7.149888000E-1,-6.181485653E0,-3.757304668E0,-9.076566696E-1
7.174912620E-1,-6.465288162E0,-3.801187277E0,-9.292669296E-1
7.199937230E-1,-6.826713562E0,-3.684727192E0,-9.893960953E-1
7.224961750E-1,-7.133109570E0,-3.468859911E0,-1.064432621E0
7.249986360E-1,-7.374918461E0,-3.234498024E0,-1.153727531E0
7.275010970E-1,-7.651513577E0,-2.954681158E0,-1.144741535E0
7.300035720E-1,-7.863657951E0,-2.632562160E0,-1.140160561E0
7.325060340E-1,-8.078300476E0,-2.370666742E0,-1.138150215E0
7.350084210E-1,-8.238349915E0,-2.116717100E0,-1.100200176E0
7.375109570E-1,-8.416250229E0,-1.833667040E0,-1.028200150E0
7.400134210E-1,-8.552300453E0,-1.625766993E0,-8.751997948E-1
7.425158820E-1,-8.681300163E0,-1.395666838E0,-7.051000595E-1
7.450183440E-1,-8.847350121E0,-1.206666708E0,-4.271497726E-1
7.475208050E-1,-9.072350502E0,-9.837667942E-1,-1.591000557E-1
7.500232670E-1,-9.225350380E0,-7.587668896E-1,1.237998009E-1
7.525257190E-1,-9.363130569E0,9.128141403E-2,9.097881317E-1
7.550281800E-1,-9.445591927E0,2.691206932E-1,1.259227276E0
7.575306410E-1,-9.392384529E0,3.580660820E-1,1.624224663E0
7.600330620E-1,-9.319591522E0,4.068756104E-1,2.008186817E0
7.625355230E-1,-9.187410355E0,4.562563896E-1,2.336712837E0
7.650379750E-1,-8.935300827E0,4.643268585E-1,2.635396957E0
7.675404370E-1,-8.609889984E0,4.127454758E-1,2.837973595E0
7.700429090E-1,-8.323310852E0,3.392128944E-1,2.919766903E0
7.725453710E-1,-7.983410358E0,2.672128677E-1,2.919766903E0
7.750478330E-1,-7.710410595E0,2.502627373E-1,2.771716595E0
7.775502950E-1,-7.442360401E0,2.192130089E-1,2.567716599E0
7.800527560E-1,-7.131410122E0,2.142629623E-1,2.323816299E0
7.825552170E-1,-6.853310108E0,2.192130089E-1,2.059816360E0
7.850576780E-1,-6.642410755E0,2.522130013E-1,1.659766674E0
7.875601390E-1,-6.460310459E0,2.811627388E-1,1.168816566E0
7.900625260E-1,-6.394594669E0,6.576490402E-1,1.003284931E0
7.925649850E-1,-6.382097721E0,7.229609489E-1,5.735492706E-1
7.950674470E-1,-6.421451569E0,7.816882133E-1,7.857370377E-2
7.975699130E-1,-6.526914597E0,8.901648521E-1,-3.774571419E-1
8.000723750E-1,-6.638731956E0,9.702572823E-1,-7.763891220E-1
8.025748360E-1,-6.734626770E0,9.496965408E-1,-1.210629225E0
8.050773030E-1,-6.820957661E0,1.044719696E0,-1.534113884E0
8.075797650E-1,-6.876393318E0,1.019369125E0,-1.903272629E0
8.100822270E-1,-6.996112347E0,1.067996502E0,-2.144089699E0
8.125847220E-1,-7.069561005E0,1.226938248E0,-2.270619154E0
8.150871840E-1,-7.169777393E0,1.358464241E0,-2.369651556E0
8.175896610E-1,-7.350155830E0,1.575291634E0,-2.384634256E0
8.200921220E-1,-7.601402283E0,1.748496532E0,-2.419460297E0
8.225945830E-1,-7.847938538E0,1.927041769E0,-2.453791380E0
8.250970630E-1,-8.196709633E0,2.154598236E0,-2.366448641E0
8.275995240E-1,-8.567660332E0,2.295598269E0,-2.294448614E0
8.301019850E-1,-8.979303360E0,2.477979660E0,-2.225824118E0
8.326044370E-1,-9.430580139E0,2.825015545E0,-1.885233164E0
8.351068990E-1,-9.851631165E0,2.933015585E0,-1.758333206E0
8.376094370E-1,-1.029758072E1,3.078965425E0,-1.562283278E0
8.401118230E-1,-1.070963097E1,3.104915380E0,-1.449333191E0
8.426143600E-1,-1.106153107E1,3.054965496E0,-1.303233147E0
8.451167470E-1,-1.142558098E1,3.066965580E0,-1.215333223E0
8.476192830E-1,-1.171253204E1,3.071915388E0,-1.208283186E0
8.501216700E-1,-1.189463043E1,3.068915606E0,-1.136283159E0
8.526241290E-1,-1.194078255E1,3.109195232E0,-9.557037354E-1
8.551265910E-1,-1.185468102E1,3.009520769E0,-9.927225113E-1
8.576290670E-1,-1.176363182E1,2.932570934E0,-1.043722391E0
8.601315290E-1,-1.161487007E1,2.982914209E0,-9.892721176E-1
8.626339850E-1,-1.142839813E1,3.028885126E0,-1.074734211E0
8.651364470E-1,-1.116859436E1,3.033578396E0,-1.146548986E0
8.676388990E-1,-1.081673622E1,3.109259605E0,-1.226840019E0
8.701413610E-1,-1.036478615E1,3.083309650E0,-1.320890188E0
8.726438230E-1,-9.829180717E0,3.060311794E0,-1.371213198E0
8.751462850E-1,-9.350340843E0,3.048764706E0,-1.338675261E0
8.776487370E-1,-8.850210190E0,3.083130121E0,-1.313737631E0
8.801511980E-1,-8.271629333E0,3.098403692E0,-1.153683424E0
8.826536590E-1,-7.763579845E0,3.120453596E0,-1.062783480E0
8.851561200E-1,-7.248630047E0,3.098403692E0,-9.477334023E-1
8.876585810E-1,-6.698580265E0,3.088353634E0,-7.497334480E-1
8.901610420E-1,-6.238679409E0,3.091353655E0,-6.037833691E-1
8.926635040E-1,-5.855579853E0,3.048453569E0,-3.537333012E-1
8.951659660E-1,-5.503679752E0,2.973453522E0,-6.168341637E-2
8.976684280E-1,-5.095679760E0,2.863353491E0,1.682665348E-1
9.001708710E-1,-4.746659756E0,2.880463362E0,8.602902889E-1
9.026733330E-1,-4.505939007E0,2.856292486E0,1.214170456E0
9.051757950E-1,-4.260547161E0,2.854228020E0,1.675510645E0
9.076782750E-1,-3.889162540E0,2.844423771E0,2.750504732E0
9.101807360E-1,-3.412495613E0,2.746575594E0,3.376462460E0
9.126831970E-1,-3.016334534E0,2.703761578E0,3.876412392E0
9.151856490E-1,-2.926681042E0,2.687984467E0,3.940712929E0
9.176881100E-1,-2.951541424E0,2.687049389E0,4.078539848E0
9.201905960E-1,-3.152952671E0,2.723484278E0,3.908567190E0
9.226930580E-1,-3.156773090E0,2.822683573E0,4.156924248E0
9.251955150E-1,-3.249088764E0,2.753541708E0,4.326057434E0
9.276979770E-1,-3.443188190E0,2.724591494E0,4.446057320E0
9.302004390E-1,-3.668188572E0,2.746641636E0,4.539958000E0
9.327029010E-1,-3.852088451E0,2.799591541E0,4.641958237E0
9.352053620E-1,-4.130188465E0,2.873541594E0,4.656957626E0
9.377078230E-1,-4.415188313E0,2.926641703E0,4.689957619E0
9.402102840E-1,-4.592188358E0,2.983641624E0,4.788957596E0
9.427127450E-1,-4.762138844E0,3.060591698E0,4.884057999E0
9.452152060E-1,-4.915874004E0,3.177106380E0,5.527683735E0
9.477176680E-1,-5.166152954E0,3.186659813E0,5.585361481E0
9.502198870E-1,-5.351536751E0,3.181369543E0,5.593356133E0
9.527223460E-1,-5.476734161E0,3.233823776E0,5.532254219E0
9.552248030E-1,-5.659485817E0,3.302069902E0,5.505104065E0
9.577274950E-1,-5.870844841E0,3.418849945E0,5.490036011E0
9.602297230E-1,-6.038704872E0,3.535288334E0,5.542585373E0
9.627324130E-1,-6.137615681E0,3.529023409E0,5.660375118E0
9.652346460E-1,-5.990890980E0,3.374707460E0,5.828813076E0
9.677373360E-1,-5.889941692E0,3.264607430E0,5.605762959E0
9.702395690E-1,-5.743991375E0,3.202657461E0,5.486813068E0
9.727420290E-1,-5.722991467E0,3.297607422E0,5.668763161E0
9.752447210E-1,-5.724941730E0,3.439657450E0,5.982712746E0
9.777469540E-1,-5.492891788E0,3.551707268E0,6.365812778E0
9.802496440E-1,-5.331941128E0,3.690607309E0,6.875812531E0
9.827518770E-1,-5.298941135E0,3.870607376E0,6.906712532E0
9.852545330E-1,-5.145614624E0,3.982200623E0,7.166193962E0
9.877567660E-1,-5.020272732E0,4.055968285E0,7.441018581E0
9.902594560E-1,-4.918789864E0,4.087496281E0,7.538975239E0
9.927616840E-1,-5.001531601E0,4.130286694E0,7.306931019E0
9.952643740E-1,-5.039610863E0,4.127952576E0,7.168990612E0
9.977668380E-1,-4.902307034E0,4.077560902E0,7.241904736E0
1.000269036E0,-4.717586517E0,3.975234270E0,7.403936386E0
1.002771495E0,-4.467048645E0,3.872826815E0,7.302080631E0
1.005273962E0,-4.065308094E0,3.729924440E0,7.186180115E0
1.007776423E0,-3.645825386E0,3.715252638E0,7.078528881E0
1.010278885E0,-2.879625797E0,3.587387085E0,6.968532562E0
1.012781346E0,-2.247676373E0,3.623387098E0,6.889482498E0
1.015283808E0,-1.615576267E0,3.662386894E0,6.645583153E0
1.017786269E0,-1.136625767E0,3.753287077E0,6.348583221E0
1.020288731E0,-1.179675579E0,3.774286985E0,5.809482574E0
1.022791193E0,-1.361626148E0,3.657286882E0,5.057532310E0
1.025293655E0,-1.061625957E0,3.554387093E0,4.621482849E0
1.027796117E0,-6.576762199E-1,3.448337078E0,4.238533020E0
1.030298564E0,-2.067608833E-1,3.132574558E0,3.777268410E0
1.032801026E0,-1.455326080E-1,2.924727440E0,3.145785332E0
1.035303487E0,-8.884825706E-1,3.504777431E0,3.121785164E0
1.037805948E0,1.455307007E-3,2.614155054E0,2.902552128E0
1.040308409E0,-8.484458923E-2,2.324161768E0,2.341009378E0
1.042810860E0,4.417753220E-1,1.681787491E0,1.941950560E0
1.045313321E0,1.139990330E0,1.015286922E0,1.199640393E0
1.047815783E0,5.947461128E-1,1.408053398E0,7.375988960E-1
1.050318245E0,3.155212402E-1,1.592891693E0,7.222460508E-1
1.052820707E0,6.725211143E-1,1.084841728E0,-7.804036140E-3
1.055323169E0,4.494714737E-1,9.538917542E-1,-6.978040934E-1
1.057825631E0,2.274713516E-1,1.024841785E0,-1.029754043E0
1.060328093E0,8.557128906E-2,1.051841736E0,-1.281754136E0
1.062830554E0,-5.047893524E-2,1.020792007E0,-1.482754111E0
1.065333015E0,-8.452892303E-2,9.438419342E-1,-1.566754103E0
1.067835476E0,8.152103424E-2,7.878417969E-1,-1.532854080E0
1.070337937E0,4.523391724E-1,4.933576584E-1,-1.381961346E0
1.072840398E0,5.304102898E-1,3.834457397E-1,-1.380328059E0
1.075342875E0,5.568900108E-1,2.823486328E-1,-1.256983876E0
1.077845337E0,6.435503960E-1,2.417325974E-1,-1.200640440E0
1.080347771E0,7.214846611E-1,1.628398895E-1,-1.172755599E0
1.082850233E0,7.958989143E-1,9.666395187E-2,-1.136127114E0
1.085352695E0,8.687982559E-1,7.481193542E-2,-1.053113461E0
1.087855180E0,8.732171059E-1,1.152801514E-2,-1.003166676E0
1.090357641E0,8.749370575E-1,-5.705213547E-2,-9.498733282E-1
1.092860088E0,8.449807167E-1,-1.204943657E-1,-8.811013103E-1
1.095362549E0,7.209305763E-1,-2.164940834E-1,-9.100512862E-1
1.097865010E0,5.940303802E-1,-2.614941597E-1,-1.054051280E0
1.100367471E0,6.249303818E-1,-2.715439796E-1,-9.861012697E-1
1.102869858E0,7.569303513E-1,-2.814440727E-1,-8.811013103E-1
1.105372394E0,9.169807434E-1,-3.285441399E-1,-7.881013155E-1
1.107874781E0,1.089930534E0,-4.125442505E-1,-7.611013055E-1
1.110377317E0,1.338930607E0,-5.224943161E-1,-7.141512632E-1
1.112879781E0,1.648182869E0,-7.236452103E-1,-6.231617928E-1
1.115382243E0,1.915724754E0,-7.648434639E-1,-5.192291737E-1
1.117884704E0,2.128879547E0,-7.975153923E-1,-4.493471682E-1
1.120387166E0,2.230376244E0,-8.350558281E-1,-3.595191836E-1
1.122889646E0,2.416617393E0,-9.218897820E-1,-4.309913814E-1
1.125392107E0,2.656199455E0,-1.046809196E0,-4.633018374E-1
1.127894568E0,2.691994667E0,-1.154858589E0,-4.847515821E-1
1.130397038E0,2.619843960E0,-1.254936218E0,-5.462819934E-1
1.132899499E0,2.693303108E0,-1.406300068E0,-5.934119225E-1
1.135401980E0,2.723742485E0,-1.463896751E0,-6.273149252E-1
1.137904442E0,2.520097256E0,-1.355512619E0,-6.582418680E-1
1.140406904E0,1.368097305E0,-5.024628639E-1,-2.752918303E-1
1.142909290E0,1.292047024E0,-6.485629082E-1,2.347081900E-1
1.145411749E0,1.799047470E0,-1.338562965E0,1.387081742E-1
1.147914211E0,1.859047413E0,-1.827562809E0,-1.012918353E-1
1.150416672E0,1.639147282E0,-1.980562687E0,-5.362918377E-1
1.152919134E0,1.522147179E0,-1.903462887E0,-1.050341845E0
1.155421595E0,1.239097118E0,-1.654462814E0,-1.616291881E0
1.157924057E0,7.086548805E-1,-1.176436424E0,-2.100829601E0
1.160426519E0,2.682147026E-1,-6.007647514E-1,-2.440935612E0
1.162928967E0,-1.004590988E-1,-1.144509315E-1,-2.590411425E0
1.165431429E0,-4.183483124E-1,2.070374489E-1,-2.459747553E0
1.167933891E0,-4.822092056E-1,3.129005432E-1,-2.098733425E0
1.170436372E0,-4.854946136E-1,3.146357536E-1,-1.666762352E0
1.172938833E0,-5.316228867E-1,2.856435776E-1,-1.082851171E0
1.175441294E0,-7.689037323E-1,2.483778000E-1,-6.527382135E-1
1.177943755E0,-8.124389648E-1,3.001651764E-1,-2.638707757E-1
1.180446216E0,-8.893890381E-1,3.142652512E-1,1.820792854E-1
1.182948677E0,-9.084386826E-1,3.432154655E-1,4.651292861E-1
1.185451139E0,-8.964395523E-1,3.931655884E-1,6.391292810E-1
1.187953601E0,-8.334388733E-1,3.811655045E-1,6.680792570E-1
1.190456063E0,-6.684389114E-1,3.912153244E-1,6.301293373E-1
1.192958525E0,-4.794387817E-1,4.432654381E-1,5.461292267E-1
1.195460987E0,-1.894893646E-1,5.941653252E-1,4.411292970E-1
1.197963449E0,8.202791214E-2,6.937222481E-1,4.005496502E-1
1.200465891E0,3.150625229E-1,8.237800598E-1,3.359062970E-1
1.202968352E0,6.243205070E-1,9.146547318E-1,1.589845419E-1
1.205470813E0,9.146490097E-1,9.592947960E-1,3.246543556E-2
1.207973279E0,1.155960560E0,1.008898258E0,-7.625108212E-2
1.210475740E0,1.424285889E0,1.110434532E0,-1.192631945E-1
1.212978202E0,1.645508289E0,1.148043156E0,-1.798296720E-1
1.215480697E0,1.817539215E0,1.188748837E0,-1.528087258E-1
1.217983159E0,1.900327206E0,1.230604649E0,-1.301473975E-1
1.220485621E0,2.082860470E0,1.284078598E0,1.084046066E-2
1.222988083E0,2.190860748E0,1.399128437E0,-2.905952930E-2
1.225490545E0,2.181860447E0,1.524078608E0,-6.115953624E-2
1.227993006E0,2.111810684E0,1.665078640E0,-7.315953076E-2
1.230495467E0,2.068760872E0,1.840128660E0,-7.015953958E-2
1.232997928E0,1.910810471E0,1.960128546E0,-3.910952806E-2
1.235500389E0,1.814810753E0,2.080128670E0,-2.005954087E-2
1.238002850E0,1.742810726E0,2.250078678E0,6.889046729E-2
1.240505303E0,1.615932465E0,2.417356968E0,1.317253113E-1
1.243007765E0,1.579778671E0,2.591224909E0,1.894837320E-1
1.245509997E0,1.539470673E0,2.775073051E0,4.603729248E-1
1.248012687E0,1.359128475E0,2.936724186E0,7.061579227E-1
1.250515151E0,1.553738117E0,3.009666920E0,2.972187102E-1
1.253017627E0,1.900114536E0,3.025855303E0,-3.176520169E-1
1.255520088E0,1.772598743E0,3.197843075E0,-6.082735062E-1
1.258022536E0,1.228087425E0,3.264937878E0,-7.137632966E-1
1.260524997E0,8.020873070E-1,3.419888020E0,-7.337133288E-1
1.263027459E0,5.941872597E-1,3.453938007E0,-4.508132935E-1
1.265529920E0,3.541870117E-1,3.446887970E0,-1.037132740E-1
1.268032381E0,3.541870117E-1,3.501937866E0,-3.171327710E-2
1.270534842E0,2.511367798E-1,3.580987930E0,-1.077632904E-1
1.273037303E0,-1.489124298E-1,3.704887867E0,-2.676326036E-2
1.275539536E0,-3.718128204E-1,3.802988052E0,1.002867222E-1
1.278042226E0,-4.024181366E-1,3.730553627E0,5.370150805E-1
1.280544468E0,-5.199241638E-1,3.778432369E0,1.083621740E0
1.283046927E0,-6.755733490E-1,3.944045067E0,1.656938553E0
1.285549389E0,-7.966814041E-1,4.107193947E0,2.156498432E0
1.288051850E0,-9.356069565E-1,4.295698643E0,2.581790447E0
1.290554312E0,-9.564638138E-1,4.483118057E0,2.795853376E0
1.293056764E0,-9.251594543E-1,4.685795784E0,2.823078871E0
1.295559225E0,-8.611040115E-1,4.927689075E0,2.692792177E0
1.298061687E0,-7.743673325E-1,4.981530666E0,2.263907433E0
1.300564149E0,-7.113676071E-1,5.146530628E0,1.813907504E0
1.303066611E0,-5.153179169E-1,5.261430740E0,1.396907449E0
1.305569073E0,-5.393171310E-1,5.297430515E0,1.066907406E0
1.308071535E0,-4.023675919E-1,5.292480469E0,1.056857467E0
1.310573996E0,-3.194179535E-1,5.249430656E0,1.078907490E0
1.313076457E0,-2.853670120E-1,5.251530647E0,1.186907530E0
1.315578918E0,-3.813676834E-1,5.081430435E0,1.147907495E0
1.318081379E0,-4.558830261E-1,4.815053463E0,1.226324797E0
1.320583841E0,-5.297632217E-1,4.555078983E0,1.147810936E0
1.323086299E0,-5.094842911E-1,4.403088093E0,1.050675988E0
1.325588761E0,-5.437498093E-1,4.324326992E0,9.868940115E-1
1.328091223E0,-4.947080612E-1,4.292425156E0,8.047865629E-1
1.330593685E0,-3.473587036E-1,4.227592945E0,5.194672942E-1
1.333096165E0,-1.885080338E-1,4.100071430E0,2.741411924E-1
1.335598626E0,-1.001501083E-1,4.062477589E0,1.291637123E-1
1.338101106E0,-1.882133484E-1,4.035542488E0,-2.426353395E-1
1.340603567E0,-1.103935242E-1,3.791288376E0,-5.939956307E-1
1.343106028E0,-1.934938431E-1,4.011338234E0,-9.220456481E-1
1.345608490E0,-3.833932877E-1,4.338338375E0,-6.950955987E-1
1.348110952E0,-5.894937515E-1,4.487288475E0,-9.220456481E-1
1.350613414E0,-7.084436417E-1,4.848338127E0,-1.327045679E0
1.353115876E0,-7.013931274E-1,5.231288433E0,-9.410956502E-1
1.355618338E0,-8.744935989E-1,5.308388233E0,2.010044456E-1
1.358120800E0,-1.099493980E0,5.275388241E0,1.042954445E0
1.360623261E0,-1.298387527E0,5.248913765E0,1.782363892E0
1.363125708E0,-1.398903847E0,5.284276962E0,2.189946651E0
1.365628093E0,-1.103923798E0,5.260353088E0,2.402626038E0
1.368130625E0,-1.170706749E0,5.286951065E0,3.016936541E0
1.370633088E0,-1.104640961E0,5.238017082E0,3.216705799E0
1.373135559E0,-1.201235771E0,5.114454269E0,3.147989988E0
1.375638020E0,-1.426562309E0,5.021463871E0,3.074481010E0
1.378140482E0,-1.486134529E0,4.842927933E0,2.776299000E0
1.380642959E0,-1.673260689E0,4.615085125E0,2.358200312E0
1.383145420E0,-1.920160294E0,4.591085434E0,1.929200292E0
1.385647881E0,-2.136160851E0,4.684085369E0,1.489100218E0
1.388150342E0,-2.588260651E0,4.713035107E0,1.101200223E0
1.390652803E0,-3.084160805E0,4.706135273E0,7.221501470E-1
1.393155264E0,-3.451210976E0,4.694135189E0,4.592001438E-1
1.395657726E0,-3.920260429E0,4.708085060E0,3.381501436E-1
1.398160188E0,-4.543210983E0,4.725035191E0,5.282001495E-1
1.400662650E0,-5.006847382E0,4.533604145E0,6.769421101E-1
1.403165112E0,-5.465024948E0,4.521330833E0,1.041203141E0
1.405667545E0,-5.966309547E0,4.507939816E0,1.528507590E0
1.408169930E0,-6.353154182E0,4.523431778E0,2.145568609E0
1.410672384E0,-6.768497467E0,4.566911697E0,2.980890751E0
1.413174846E0,-7.058191299E0,4.723667145E0,3.802751780E0
1.415677307E0,-7.434533119E0,4.778233528E0,4.336966991E0
1.418179779E0,-7.682476044E0,4.851555824E0,4.850357056E0
1.420682240E0,-7.809874535E0,4.746482849E0,5.202701569E0
1.423184702E0,-8.123824120E0,4.646432877E0,5.511701584E0
1.425687164E0,-8.173775673E0,4.627532959E0,5.794751644E0
1.428189626E0,-8.178874016E0,4.620482922E0,5.772701740E0
1.430692088E0,-8.072825432E0,4.648532867E0,5.653751850E0
1.433194550E0,-7.804774284E0,4.624532700E0,4.905701637E0
1.435697012E0,-7.292824745E0,4.675532818E0,4.187651634E0
1.438199473E0,-7.011874199E0,4.636532784E0,3.923651457E0
1.440701929E0,-6.881451607E0,4.345621109E0,3.917835712E0
1.443204390E0,-7.031056404E0,4.086260319E0,4.097448826E0
1.445706851E0,-6.907620430E0,3.680917978E0,4.209367752E0
1.448209312E0,-6.898922920E0,3.321647167E0,4.336588383E0
1.450711794E0,-6.877184868E0,3.110182524E0,4.398004532E0
1.453214256E0,-6.711712837E0,2.868824005E0,4.268898010E0
1.455716718E0,-6.527812004E0,2.629873991E0,4.259898186E0
1.458219180E0,-6.458811760E0,2.356873989E0,4.180998325E0
1.460721642E0,-6.364762306E0,1.829923987E0,3.746898174E0
1.463224104E0,-6.216711998E0,1.633873940E0,2.939898014E0
1.465726565E0,-6.261712074E0,1.326823950E0,1.660998106E0
1.468229026E0,-6.616762161E0,1.036874056E0,2.239979804E-1
1.470731487E0,-6.479811668E0,7.928240299E-1,-4.840020537E-1
1.473233962E0,-6.078813553E0,-3.050687313E-1,-1.341062665E0
1.475736423E0,-5.956785202E0,-8.132257462E-1,-2.152418852E0
1.478238885E0,-5.477478981E0,-1.216347933E0,-1.446960211E0
1.480741342E0,-5.194947243E0,-1.434634686E0,-1.669682145E0
1.483243804E0,-4.953609467E0,-1.074069023E0,-8.020952940E-1
1.485746031E0,-4.853507042E0,-3.783550262E-1,-3.429358080E-2
1.488248721E0,-4.697397232E0,-2.877299786E-1,-1.100728393E0
1.490751190E0,-4.360659599E0,-6.534771919E-1,-1.909958363E0
1.493253651E0,-4.012199402E0,-7.193617821E-1,-2.012640953E0
1.495756113E0,-4.077300072E0,-4.753117561E-1,-3.777690887E0
1.498258574E0,-3.188249588E0,-1.986411810E0,-6.641640663E0
1.500761036E0,-2.525249481E0,-2.554311991E0,-8.021640778E0
1.503263497E0,-2.187299728E0,-2.147361517E0,-8.304691315E0
1.505765958E0,-2.338199615E0,-2.082411528E0,-7.966741085E0
1.508268419E0,-2.568299294E0,-2.501361609E0,-7.985641003E0
1.510770880E0,-2.199299812E0,-3.133311987E0,-7.235641003E0
1.513273342E0,-2.432948112E0,-3.792005062E0,-6.688257217E0
1.515775799E0,-3.219129562E0,-4.138855934E0,-6.362725258E0
1.518278261E0,-3.479891777E0,-4.493715286E0,-7.069015980E0
1.520780492E0,-2.285082817E0,-4.570585251E0,-8.847510338E0
1.523282914E0,2.868175507E-1,-5.248584747E0,-1.068756104E1
1.525785375E0,2.284817696E0,-5.928535461E0,-1.234446049E1
1.528287861E0,3.731873035E0,-7.642353058E0,-1.428342819E1
1.530790323E0,5.184086323E0,-8.700256348E0,-1.655271149E1
1.533292793E0,6.985713005E0,-7.452487946E0,-1.579139614E1
1.535795255E0,7.174712658E0,-5.850487709E0,-1.161629581E1
1.538297716E0,6.372812748E0,-5.328487396E0,-5.296345234E0
1.540800178E0,6.000812531E0,-5.924588203E0,-2.249395132E0
1.543302640E0,6.278762817E0,-5.994487762E0,-1.521295071E0
1.545805102E0,4.321712494E0,-5.531587601E0,-2.573949993E-1
1.548307564E0,2.951762676E0,-5.201587677E0,1.588655114E0
1.550810026E0,2.765762329E0,-5.002537727E0,3.547655344E0
1.553312487E0,3.323463917E0,-4.902256012E0,4.356697083E0
1.555814944E0,4.623553753E0,-3.843326807E0,4.888662338E0
1.558317405E0,5.466989517E0,-2.823427200E0,5.026189804E0
1.560819866E0,6.135989666E0,-2.123377323E0,4.396189690E0
1.563322328E0,6.618686199E0,-1.782498121E0,3.334958315E0
1.565824790E0,7.162101269E0,-1.599956036E0,2.231743574E0
1.568327237E0,7.607248306E0,-1.421224356E0,1.418405056E0
1.570829699E0,7.813293457E0,-1.238645554E0,1.201919794E0
1.573332161E0,7.978270531E0,-1.394513130E0,1.311876059E0
1.575834627E0,8.032066345E0,-1.574244738E0,1.857690930E0
1.578337088E0,8.201759338E0,-1.452682495E0,2.432486296E0
1.580839568E0,8.045341492E0,-1.496022940E0,2.456722736E0
1.583342029E0,7.813292027E0,-1.778023005E0,2.286622524E0
1.585844491E0,7.415341854E0,-2.067973137E0,2.521672726E0
1.588346953E0,6.769291878E0,-2.486922979E0,3.462622643E0
1.590849415E0,6.280291557E0,-2.723923206E0,3.802672386E0
1.593351877E0,6.077342033E0,-2.795922995E0,3.767722607E0
1.595854339E0,5.811242104E0,-3.387973070E0,3.944722652E0
1.598356800E0,5.787241936E0,-3.893023252E0,3.484672546E0
1.600859185E0,5.936127663E0,-4.275963306E0,1.937808990E0
1.603361735E0,6.466256618E0,-4.359094143E0,-1.942749619E-1
1.605864199E0,7.037311554E0,-4.594074726E0,-2.307441235E0
1.608366651E0,7.601206779E0,-5.059886932E0,-4.140091419E0
1.610869113E0,8.069044113E0,-5.483017921E0,-5.665824413E0
1.613371498E0,8.495657921E0,-6.275051594E0,-5.889907360E0
1.615874043E0,8.948742867E0,-6.629751205E0,-5.369933605E0
1.618376430E0,9.508934021E0,-6.368206978E0,-5.709453106E0
1.620878951E0,1.026864433E1,-5.859512806E0,-6.007814884E0
1.623381338E0,1.102059460E1,-5.691512585E0,-6.556815147E0
1.625883874E0,1.119264412E1,-5.751512527E0,-6.616815090E0
1.628386338E0,1.057959461E1,-6.065462589E0,-6.338865280E0
1.630888799E0,9.747694016E0,-6.108512878E0,-7.009815216E0
1.633391261E0,9.232594490E0,-5.979512691E0,-8.687864304E0
1.635893722E0,9.959644318E0,-6.345512867E0,-1.083181477E1
1.638396184E0,1.130364418E1,-6.901562691E0,-1.135681534E1
1.640898569E0,1.237334919E1,-7.368595123E0,-1.098459530E1
1.643401028E0,1.179869080E1,-7.989010334E0,-9.537222862E0
1.645903490E0,1.200623226E1,-7.996560574E0,-7.715236187E0
1.648405951E0,1.385915089E1,-6.881522179E0,-5.317847729E0
1.650908427E0,1.677375221E1,-5.431198120E0,-2.956159830E0
1.653410888E0,2.033768463E1,-3.763862610E0,3.752540350E-1
1.655913351E0,2.274632263E1,-2.641910076E0,2.532312393E0
1.658415813E0,2.293428802E1,-2.149591684E0,2.498370647E0
1.660918275E0,2.196723747E1,-1.991491556E0,2.735370636E0
1.663420737E0,2.027133751E1,-1.124491692E0,2.428470612E0
1.665923199E0,1.580028725E1,-3.698491812E0,1.901370525E0
1.668425661E0,1.346223736E1,-6.081542015E0,1.511370420E0
1.670928122E0,1.218123722E1,-6.539492607E0,2.342370510E0
1.673430583E0,1.062123680E1,-6.591542244E0,3.540420532E0
1.675933044E0,8.963287354E0,-6.876542091E0,3.513420582E0
1.678435500E0,7.977765083E0,-6.229139328E0,4.290740967E0
1.680937961E0,5.946042538E0,-6.666892052E0,4.435753345E0
1.683440437E0,4.707782745E0,-6.941353321E0,3.968232870E0
1.685942899E0,3.760880470E0,-6.874119282E0,3.331798553E0
1.688445385E0,2.797859192E0,-7.176296234E0,3.189282417E0
1.690947847E0,2.216496944E0,-7.749246597E0,2.271909714E0
1.693450280E0,2.343804359E0,-8.993350983E0,1.771061659E0
1.695952742E0,2.022804737E0,-1.013140106E1,2.202011585E0
1.698455203E0,1.693854332E0,-1.074940109E1,2.777111530E0
1.700957664E0,1.143804550E0,-1.078240108E1,2.751011610E0
1.703460125E0,9.018545151E-1,-1.056940079E1,1.371011615E0
1.705962586E0,-4.251956940E-1,-1.097440052E1,-3.319385350E-1
1.708465047E0,-2.341145515E0,-1.081135082E1,-1.884888530E0
1.710967509E0,-3.967145920E0,-1.040440083E1,-2.531988621E0
1.713469971E0,-6.029226303E0,-8.854709625E0,-2.791681767E0
1.715972184E0,-7.402463913E0,-8.140642166E0,-2.517405272E0
1.718474874E0,-8.329977989E0,-7.234191895E0,-2.207944870E0
1.720977102E0,-9.318776131E0,-6.685496330E0,-2.228945255E0
1.723479793E0,-1.043811989E1,-6.588088512E0,-2.188505888E0
1.725982256E0,-1.102009964E1,-6.454159737E0,-2.088308573E0
1.728484497E0,-1.122230244E1,-5.935964108E0,-2.018591166E0
1.730987187E0,-1.182785892E1,-5.742533684E0,-1.979862452E0
1.733489420E0,-1.232285786E1,-5.565533638E0,-2.288862228E0
1.735992110E0,-1.272785854E1,-5.371582985E0,-2.916912556E0
1.738494343E0,-1.285985851E1,-5.052533150E0,-3.280962467E0
1.740997033E0,-1.274990940E1,-4.732583046E0,-3.344862461E0
1.743499497E0,-1.284785938E1,-4.375583649E0,-3.414912701E0
1.746001958E0,-1.290485859E1,-3.850583076E0,-3.258912563E0
1.748504420E0,-1.305395794E1,-3.323633194E0,-3.038862705E0
1.751006891E0,-1.382737732E1,-2.034114838E0,-2.829750776E0
1.753509121E0,-1.381289482E1,-1.230457306E0,-2.569096088E0
1.756011557E0,-1.366876316E1,-6.499052048E-1,-2.392782688E0
1.758514018E0,-1.322135544E1,-1.398310661E-1,-2.261601925E0
1.761016461E0,-1.271701622E1,1.394662857E-1,-2.365383625E0
1.763518922E0,-1.268338966E1,3.143982887E-1,-2.614300966E0
1.766021408E0,-1.242650127E1,4.193906784E-1,-2.730098248E0
1.768523870E0,-1.128199196E1,6.133060455E-1,-2.652822495E0
1.771026332E0,-1.020904160E1,7.333059311E-1,-2.271822453E0
1.773528794E0,-9.439992905E0,8.363561630E-1,-1.752822518E0
1.776031256E0,-8.829942703E0,6.973061562E-1,-1.438722491E0
1.778533718E0,-8.178041458E0,5.393562317E-1,-1.143822432E0
1.781036179E0,-7.761941433E0,4.393062592E-1,-5.697724223E-1
1.783538640E0,-7.680041790E0,5.494060516E-1,2.012276053E-1
1.786041101E0,-7.620041370E0,8.224062920E-1,1.209227681E0
1.788543548E0,-7.287950039E0,1.197577477E0,2.255923271E0
1.791046009E0,-6.623418331E0,1.554335117E0,2.972611427E0
1.793548471E0,-5.859189510E0,1.775144100E0,3.377472878E0
1.796050913E0,-5.183336735E0,1.994110107E0,3.537534237E0
1.798553361E0,-4.438408852E0,2.020851612E0,3.953943729E0
1.801055823E0,-3.727124214E0,2.093100071E0,4.288232803E0
1.803558285E0,-3.181666851E0,2.092141628E0,4.427951336E0
1.806060713E0,-2.858462811E0,2.102966309E0,4.439934254E0
1.808563174E0,-2.585463047E0,2.134016514E0,4.477884293E0
1.811065635E0,-2.310362339E0,2.252066612E0,4.477884293E0
1.813568096E0,-2.437412739E0,2.539016247E0,4.365984440E0
1.816070557E0,-2.743412495E0,2.801966429E0,4.190934181E0
1.818573018E0,-3.079412937E0,3.056066513E0,4.006884098E0
1.821075480E0,-3.486362934E0,3.302966595E0,3.809934139E0
1.823577942E0,-3.740462780E0,3.539966583E0,3.582983971E0
1.826080404E0,-4.040164948E0,3.790909529E0,3.339559555E0
1.828582866E0,-4.137969971E0,3.888422728E0,3.155747652E0
1.831085328E0,-4.210559368E0,3.988430977E0,2.912462950E0
1.833587790E0,-4.320315361E0,3.924955606E0,2.685728550E0
1.836090160E0,-4.515746593E0,4.015625000E0,2.451545477E0
1.838592620E0,-4.744024277E0,4.109706402E0,2.281538963E0
1.841095071E0,-5.078493118E0,4.038187981E0,1.976979017E0
1.843597533E0,-5.511528015E0,3.871065140E0,1.689883471E0
1.846100071E0,-6.202188015E0,3.799147129E0,1.503321409E0
1.848602458E0,-6.721188068E0,3.727147102E0,1.419321418E0
1.851104995E0,-7.212288380E0,3.495247126E0,1.373421431E0
1.853607381E0,-7.893288136E0,3.255247116E0,1.416321397E0
1.856109918E0,-8.889287949E0,2.949247122E0,1.266321421E0
1.858612304E0,-9.682188034E0,2.781247139E0,1.036371469E0
1.861114841E0,-1.048618698E1,2.771197319E0,8.634214401E-1
1.863617304E0,-1.110223770E1,2.644147396E0,7.314214706E-1
1.866119766E0,-1.185977650E1,2.554297447E0,4.698275924E-1
1.868622227E0,-1.261767769E1,2.357896328E0,1.339420527E-1
1.871124708E0,-1.336376762E1,2.004535198E0,-6.483889818E-1
1.873627093E0,-1.395888805E1,1.570127010E0,-1.367463946E0
1.876129552E0,-1.453081894E1,1.123489857E0,-2.383784771E0
1.878632014E0,-1.548811722E1,8.218870163E-1,-3.319468737E0
1.881134485E0,-1.559091759E1,5.616254807E-1,-4.160636425E0
1.883636947E0,-1.572803497E1,1.226043701E-2,-4.779539585E0
1.886139408E0,-1.589303398E1,-7.066893578E-1,-4.976489544E0
1.888641870E0,-1.554998398E1,-1.269789696E0,-5.107439995E0
1.891144332E0,-1.575398445E1,-1.750689507E0,-5.359439850E0
1.893646794E0,-1.487303352E1,-2.284689903E0,-5.459489822E0
1.896149256E0,-1.224998474E1,-2.859789848E0,-5.589540005E0
1.898651718E0,-1.024298477E1,-3.032739639E0,-5.186489582E0
1.901154180E0,-8.480033875E0,-3.041739464E0,-4.901489735E0
1.903656641E0,-6.109742165E0,-3.185406208E0,-4.683666229E0
1.906159083E0,-3.633388519E0,-3.146795750E0,-4.301074982E0
1.908661544E0,-9.612264633E-1,-3.178595066E0,-4.050395012E0
1.911164005E0,1.415390015E0,-3.028975487E0,-4.108403206E0
1.913666451E0,3.126317501E0,-2.906077385E0,-4.286817551E0
1.916168913E0,4.256191254E0,-2.763645649E0,-4.167441368E0
1.918671404E0,5.178783894E0,-2.651987553E0,-4.049150944E0
1.921173866E0,5.984731197E0,-2.382473469E0,-3.793825388E0
1.923676328E0,7.330298901E0,-2.068486691E0,-3.419445515E0
1.926178781E0,9.524729729E0,-1.711327076E0,-2.862560272E0
1.928681243E0,1.112162971E1,-1.210327148E0,-2.556560278E0
1.931183704E0,1.228367996E1,-6.004266739E-1,-1.827560544E0
1.933686165E0,1.284362984E1,3.962326050E-2,-1.102610469E0
1.936188626E0,1.273172951E1,5.326733589E-1,-4.936103225E-1
1.938691087E0,1.249667931E1,9.475731850E-1,-2.086103410E-1
1.941193548E0,1.226672935E1,1.306673050E0,4.674397111E-1
1.943696010E0,1.161063004E1,1.790573120E0,1.485489726E0
1.946198243E0,1.284672165E1,1.564656734E0,1.923786640E0
1.948700687E0,1.271642876E1,1.862843990E0,1.917114973E0
1.951203149E0,1.208834076E1,2.219362974E0,1.907426357E0
1.953705610E0,1.190589809E1,2.560007334E0,1.917831421E0
1.956208082E0,1.156609535E1,2.888837814E0,1.941803217E0
1.958710577E0,1.058268547E1,3.319203854E0,1.930812955E0
1.961213270E0,9.594415665E0,3.671228886E0,2.060113907E0
1.963715502E0,9.096774101E0,3.950623989E0,2.066058397E0
1.966218193E0,8.926673889E0,4.283623695E0,2.090058327E0
1.968720425E0,7.921673775E0,4.702723980E0,2.499108315E0
1.971223116E0,6.769673347E0,5.190673828E0,3.136158466E0
1.973725349E0,5.941673279E0,5.654623985E0,4.083108425E0
1.976228039E0,5.838773727E0,6.090673923E0,4.447158813E0
1.978730272E0,6.003773689E0,6.511723995E0,4.447158813E0
1.981232962E0,4.027673244E0,6.904724121E0,5.211108685E0
1.983735425E0,3.371715069E0,7.027687550E0,5.438694000E0
1.986237887E0,2.577145100E0,7.076581478E0,5.490545273E0
1.988740123E0,2.205177307E0,7.313074112E0,5.922107697E0
1.991242582E0,1.591697693E0,6.846435070E0,5.495136261E0
1.993745030E0,1.039286137E0,6.012350082E0,4.642218113E0
1.996247491E0,2.836332321E-1,5.224045753E0,4.191986084E0
1.998749967E0,-4.229869843E-1,4.396706581E0,4.014737129E0
2.001252429E0,-7.360372543E-1,3.730706692E0,4.151836872E0
2.003754890E0,-1.099936485E0,2.820656538E0,4.374736786E0
2.006257352E0,-1.571987152E0,2.212706566E0,4.570786953E0
2.008759814E0,-1.823987007E0,1.733606339E0,5.020787239E0
2.011262276E0,-1.984037399E0,1.508606434E0,5.447836876E0
2.013764738E0,-1.630037308E0,1.352606535E0,5.806787014E0
2.016267200E0,-1.315937042E0,1.350656509E0,5.624836922E0
2.018769661E0,-9.772691727E-1,1.529949903E0,4.617842674E0
2.021272132E0,-1.388703346E0,2.031801701E0,4.050002575E0
2.023774593E0,-6.948018074E0,3.476235867E0,4.607888222E0
2.026277054E0,-4.668629646E0,3.852871895E0,2.753163576E0
2.028779516E0,-1.980654716E0,3.669198036E0,6.255288124E-1
2.031281978E0,-1.676968575E0,3.730694294E0,-1.889825463E-1
2.033784440E0,-1.095865250E0,3.879246712E0,-1.215434790E0
2.036286887E0,-1.173321724E0,4.310264587E0,-2.012624741E0
2.038789349E0,-5.207853317E-1,4.808599472E0,-2.384508610E0
2.041291824E0,9.911570549E-1,4.818594933E0,-3.291689873E0
2.043794285E0,4.166297913E-1,4.552970886E0,-3.612459660E0
2.046296746E0,1.861839294E-1,4.340772629E0,-3.728637457E0
2.048799207E0,1.171836853E-1,4.431672573E0,-3.939687490E0
2.051301668E0,-1.438159943E-1,4.666722298E0,-3.604737520E0
2.053804130E0,-2.518157959E-1,4.761672497E0,-3.178737402E0
2.056306592E0,-1.538658142E-1,4.835772514E0,-2.833737612E0
2.058809054E0,8.613395691E-2,4.816722393E0,-2.560737610E0
2.061311516E0,2.701835632E-1,4.799772263E0,-2.227737427E0
2.063813901E0,2.011842728E-1,5.010672569E0,-2.126637459E0
2.066316385E0,-4.588460922E-1,5.536209106E0,-2.942898512E0
2.068818846E0,6.825447083E-2,5.508159161E0,-2.684898376E0
2.071321304E0,6.718077660E-1,5.307323456E0,-2.244701385E0
2.073823765E0,8.378896713E-1,5.140779018E0,-2.286554337E0
2.076326227E0,1.468426228E0,4.981004715E0,-2.400538206E0
2.078828712E0,2.177954197E0,5.027153969E0,-2.469367981E0
2.081331251E0,2.586593628E0,4.987863541E0,-2.377167702E0
2.083833638E0,3.045203686E0,4.886217117E0,-2.128310680E0
2.086336174E0,2.825153828E0,4.886217117E0,-1.895360708E0
2.088838561E0,2.389254093E0,4.951167107E0,-2.106260777E0
2.091341097E0,2.406203747E0,4.814217091E0,-2.020310640E0
2.093843484E0,2.835204124E0,4.790217400E0,-1.938260674E0
2.096345943E0,2.916203976E0,4.341116905E0,-1.871360660E0
2.098848405E0,3.105204105E0,3.677217007E0,-1.591310620E0
2.101350866E0,3.263154030E0,2.839167118E0,-1.555310607E0
2.103853328E0,2.101554871E0,2.808184624E0,-2.137928009E0
2.106355803E0,1.491376877E0,3.060731173E0,-2.472218513E0
2.108858265E0,2.010537624E0,2.324529171E0,-2.162722111E0
2.111360727E0,2.660691261E0,1.387123108E0,-2.045830727E0
2.113863179E0,3.447553635E0,5.040163994E-1,-2.203118563E0
2.116365641E0,3.805500031E0,-8.224992752E-1,-2.394476414E0
2.118868094E0,2.319500446E0,-3.090382576E0,-1.806049943E0
2.121370556E0,1.520026207E0,-4.275417805E0,-1.465633869E0
2.123873012E0,1.429282188E0,-4.659265041E0,-7.567508221E-1
2.126375473E0,6.392321587E-1,-4.755265713E0,1.742991209E-1
2.128877934E0,-9.057683945E-1,-4.856215000E0,6.929922104E-2
2.131380395E0,-8.457679749E-1,-4.789165020E0,6.682492495E-1
2.133882856E0,-1.329817772E0,-4.846165180E0,1.894349217E0
2.136385318E0,-3.195817947E0,-5.069215298E0,2.567249298E0
2.138887780E0,-3.954817772E0,-5.454265118E0,2.464349270E0
2.141390242E0,-3.714818001E0,-5.402215481E0,2.735249043E0
2.143892704E0,-5.528158665E0,-5.001279354E0,2.235820532E0
2.146395166E0,-6.611965656E0,-4.860630989E0,1.832230091E0
2.148897628E0,-7.072318554E0,-4.710433483E0,1.704009533E0
2.151400089E0,-7.638278484E0,-4.736174107E0,1.721525908E0
2.153902550E0,-7.574760437E0,-4.661714077E0,1.462969542E0
2.156405011E0,-7.013797760E0,-4.859436989E0,9.958183765E-1
2.158907477E0,-6.548060894E0,-5.717320442E0,4.176125526E-1
2.161409938E0,-6.035061359E0,-6.548319817E0,-7.894375324E-1
2.163912400E0,-5.645061016E0,-6.373270035E0,-7.853875160E-1
2.166414633E0,-6.047061443E0,-6.036219597E0,-6.743874550E-1
2.168917092E0,-7.096011639E0,-6.081219673E0,-1.304387569E0
2.171419554E0,-8.378061295E0,-6.333220482E0,-1.496387601E0
2.173922015E0,-9.647062302E0,-6.512319565E0,-1.496387601E0
2.176424477E0,-1.047101212E1,-6.752320290E0,-1.357337594E0
2.178926938E0,-1.138601112E1,-6.872320175E0,-1.362437606E0
2.181429390E0,-1.249366951E1,-5.984609604E0,-2.705957651E0
2.183931852E0,-1.286770058E1,-5.949968815E0,-3.065399408E0
2.186434319E0,-1.327679443E1,-6.027274132E0,-2.781805038E0
2.188936781E0,-1.289158726E1,-5.606462479E0,-2.221455097E0
2.191439243E0,-1.285811424E1,-5.227369785E0,-1.374614716E0
2.193941705E0,-1.243670654E1,-4.827468872E0,-8.351535797E-1
2.196444395E0,-1.212914276E1,-4.154447556E0,-2.339775562E-1
2.198946652E0,-1.178848839E1,-3.538564205E0,6.105086803E-1
2.201449111E0,-1.154848862E1,-3.020614147E0,1.676558733E0
2.203951573E0,-1.125540066E1,-2.263917923E0,2.480752468E0
2.206454048E0,-1.035184669E1,-1.480763435E0,3.438898087E0
2.208956510E0,-9.227270126E0,-6.735968590E-1,4.180988312E0
2.211458972E0,-8.250318527E0,1.884531975E-1,4.482038498E0
2.213961433E0,-7.922094822E0,4.205117226E-1,4.829980850E0
2.216463895E0,-7.124065399E0,4.025430679E-1,5.515037537E0
2.218966362E0,-5.982656002E0,-2.686595917E-2,6.126930237E0
2.221468824E0,-4.909412861E0,-7.848057747E-1,6.656287193E0
2.223971262E0,-3.840298176E0,-1.682343006E0,6.835721970E0
2.226473724E0,-3.242636681E0,-2.645912647E0,6.743165970E0
2.228976185E0,-2.803303242E0,-3.396046638E0,6.685039997E0
2.231478646E0,-2.126248360E0,-3.890520573E0,6.455735683E0
2.233981117E0,-1.501966476E0,-4.401446819E0,6.064207554E0
2.236483578E0,-9.512209892E-1,-5.008515358E0,5.549128532E0
2.238986040E0,-3.208255768E-1,-5.602393627E0,4.830532074E0
2.241488473E0,2.482366562E-1,-5.951521397E0,4.025232315E0
2.243990935E0,7.168502808E-1,-6.036103725E0,3.298626423E0
2.246493397E0,1.168800354E0,-5.983153820E0,2.563626289E0
2.248995859E0,1.580850601E0,-5.947153568E0,1.866576195E0
2.251498320E0,1.978800297E0,-5.988104343E0,1.262676239E0
2.254000705E0,2.076900482E0,-5.966204166E0,7.906265259E-1
2.256503241E0,2.431800365E0,-5.492204189E0,2.876763344E-1
2.259005705E0,2.742900372E0,-4.910203457E0,-5.163238049E-1
2.261508166E0,2.857800484E0,-4.300154209E0,-1.568423748E0
2.264010628E0,3.375848293E0,-4.219943047E0,-1.946028948E0
2.266513085E0,3.661602020E0,-3.989211082E0,-2.566958427E0
2.269015546E0,4.324683189E0,-3.504006386E0,-2.952807903E0
2.271517931E0,4.791316986E0,-3.281525612E0,-3.480832815E0
2.274020390E0,3.658907175E0,-2.922646523E0,-4.101675034E0
2.276522842E0,3.121723175E0,-2.428753853E0,-4.268610001E0
2.279025303E0,2.920721769E0,-2.137041092E0,-4.651703358E0
2.281527765E0,2.663015366E0,-1.805170536E0,-4.848034382E0
2.284030236E0,2.238475323E0,-1.610887527E0,-4.830250740E0
2.286532698E0,2.017325401E0,-1.481154442E0,-4.572847366E0
2.289035160E0,2.099093914E0,-1.363928318E0,-4.437119961E0
2.291537636E0,2.225998878E0,-1.259985447E0,-4.211425781E0
2.294040098E0,2.239494324E0,-1.128558159E0,-3.932948589E0
2.296542560E0,1.981202602E0,-9.522404671E-1,-3.822805643E0
2.299045022E0,1.522202492E0,-6.123404503E-1,-3.614755630E0
2.301547483E0,1.454051018E0,-4.515323639E-1,-3.304989100E0
2.304049944E0,1.824810982E0,-2.287178040E-1,-3.145908833E0
2.306552405E0,2.691746950E0,1.911497116E-2,-2.505507946E0
2.309054866E0,1.796495914E0,1.346569061E-1,-2.205025196E0
2.311557351E0,1.202263355E0,4.215087891E-1,-2.073606014E0
2.314059813E0,9.013266563E-1,6.082868576E-1,-1.790493250E0
2.316562266E0,9.131641388E-1,6.161737442E-1,-1.411541820E0
2.319064728E0,8.297920227E-1,7.666893005E-1,-1.241581678E0
2.321567190E0,8.107419014E-1,8.307394981E-1,-1.349581599E0
2.324069652E0,1.018792152E0,1.072689056E0,-1.387681603E0
2.326572114E0,1.236742020E0,1.360689163E0,-1.267681599E0
2.329074575E0,1.452742100E0,1.417689323E0,-1.102681637E0
2.331577036E0,1.615792274E0,1.590639114E0,-1.143631697E0
2.334079497E0,1.572741985E0,1.781739235E0,-1.179631710E0
2.336581729E0,1.751692295E0,1.920639515E0,-1.023631573E0
2.339084419E0,1.800707340E0,1.962837219E0,-1.059094906E0
2.341586666E0,1.800827026E0,2.089684486E0,-1.178968430E0
2.344089356E0,1.850821495E0,2.127880573E0,-1.235110044E0
2.346591589E0,1.881662846E0,2.244414806E0,-1.422812104E0
2.349094280E0,1.950498581E0,2.283977032E0,-1.653590441E0
2.351596512E0,1.873185635E0,2.203428745E0,-1.841695309E0
2.354099203E0,1.902838707E0,2.194827557E0,-2.056037664E0
2.356601661E0,2.228233337E0,2.275307655E0,-2.536683083E0
2.359104123E0,2.413277626E0,2.332525730E0,-2.977064610E0
2.361606574E0,2.659279108E0,2.482148170E0,-3.224081993E0
2.364109036E0,2.906167507E0,2.866880417E0,-3.549839973E0
2.366611497E0,3.019785643E0,3.035987377E0,-3.580188513E0
2.369113728E0,3.269291639E0,3.033426762E0,-3.593111038E0
2.371616188E0,3.667965174E0,3.033283234E0,-3.591316700E0
2.374118649E0,3.854714870E0,3.065481186E0,-3.416380405E0
2.376621121E0,4.060918808E0,3.075427532E0,-3.271854401E0
2.379123582E0,4.055968761E0,3.168427706E0,-3.231804371E0
2.381626044E0,4.311868668E0,3.161527634E0,-3.233754396E0
2.384128505E0,4.699918747E0,2.967427731E0,-3.168804407E0
2.386630967E0,4.936918736E0,2.811427593E0,-3.082854271E0
2.389133429E0,5.193868637E0,2.632477522E0,-3.027804375E0
2.391635891E0,5.494918823E0,2.380477428E0,-2.996754408E0
2.394138353E0,5.801968575E0,2.155477524E0,-2.994804382E0
2.396640815E0,6.275230885E0,1.767162323E0,-3.005680084E0
2.399143263E0,6.638030052E0,1.471503258E0,-2.965687513E0
2.401645724E0,6.886445522E0,1.283183098E0,-2.989528894E0
2.404148185E0,7.054107666E0,1.125644207E0,-2.957822561E0
2.406650626E0,7.008858681E0,1.050005913E0,-2.964169025E0
2.409153087E0,6.737000465E0,9.807724953E-1,-3.067397118E0
2.411655548E0,6.499093056E0,9.889974594E-1,-3.009702206E0
2.414158010E0,6.137428284E0,9.865889549E-1,-2.952808619E0
2.416660453E0,5.776483059E0,1.008151054E0,-2.901531935E0
2.419162915E0,5.843533039E0,9.250512123E-1,-2.644582033E0
2.421665377E0,5.781583309E0,9.010510445E-1,-2.407582045E0
2.424167839E0,6.116533279E0,9.700512886E-1,-2.388532162E0
2.426670301E0,5.580583096E0,7.660508156E-1,-2.211532116E0
2.429172762E0,5.079583168E0,6.610512733E-1,-1.971531987E0
2.431675147E0,4.821582794E0,5.650510788E-1,-1.751631975E0
2.434177606E0,4.591483116E0,4.671010971E-1,-1.600582004E0
2.436680068E0,4.444284439E0,5.850744247E-1,-1.429868460E0
2.439182529E0,4.731931686E0,5.574860573E-1,-1.473523974E0
2.441685010E0,4.833863258E0,5.262784958E-1,-1.530311227E0
2.444187472E0,4.847190857E0,4.804077148E-1,-1.638717890E0
2.446689929E0,4.991888046E0,4.867839813E-1,-1.827485919E0
2.449192391E0,5.029701233E0,5.218844414E-1,-1.928515434E0
2.451694853E0,4.868715763E0,5.834879875E-1,-2.047650576E0
2.454197390E0,4.719027996E0,7.576246262E-1,-2.109230518E0
2.456699776E0,4.518036366E0,9.125852585E-1,-2.098070383E0
2.459202313E0,4.477986336E0,1.109535217E0,-2.096120358E0
2.461704699E0,4.548936367E0,1.391535282E0,-2.108120441E0
2.464207159E0,4.726986408E0,1.417485237E0,-2.084120274E0
2.466709620E0,5.662986755E0,1.444485188E0,-2.141120434E0
2.469212082E0,5.850036621E0,1.643535137E0,-2.084120274E0
2.471714544E0,5.071986675E0,1.760535240E0,-1.888070345E0
2.474217005E0,4.830036640E0,1.904535294E0,-1.603070378E0
2.476719462E0,4.425646782E0,2.091382027E0,-1.105408430E0
2.479221924E0,4.510628700E0,2.047892094E0,-9.078204632E-1
2.481724386E0,4.747845173E0,2.090860844E0,-6.244916916E-1
2.484226839E0,4.899967194E0,2.031366825E0,-4.379487038E-1
2.486729301E0,5.044841290E0,1.899965763E0,-2.637062073E-1
2.489231762E0,5.506047726E0,1.974483490E0,-7.227969170E-2
2.491734223E0,5.865827560E0,2.032781124E0,8.740043640E-2
2.494236712E0,5.192305565E0,1.918005466E0,2.571790218E-1
2.496739173E0,4.777304173E0,1.995238304E0,6.126036644E-1
2.499241635E0,4.538052559E0,2.075734615E0,9.348690510E-1
2.501744111E0,4.349923611E0,2.044756889E0,1.213713884E0
2.504246573E0,4.231631756E0,1.989152431E0,1.600557804E0
2.506749035E0,4.190482616E0,1.881875992E0,1.952970982E0
2.509251497E0,4.032589436E0,1.800838947E0,2.243370295E0
2.511753968E0,3.694474459E0,1.736199856E0,2.520069361E0
2.514256429E0,3.334796190E0,1.645843506E0,2.793927908E0
2.516758880E0,2.985874891E0,1.463881016E0,2.768951416E0
2.519261341E0,2.664874792E0,1.180830956E0,2.924951553E0
2.521763802E0,2.324824810E0,9.288311005E-1,3.059051514E0
2.524266264E0,1.855774879E0,6.798310280E-1,3.157001495E0
2.526768497E0,1.304824829E0,3.637809753E-1,3.317951679E0
2.529270956E0,6.647748947E-1,1.008310318E-1,3.421001434E0
2.531773418E0,-6.317520142E-2,-2.152190208E-1,3.601001263E0
2.534275879E0,-8.802251816E-1,-5.171685219E-1,4.079951286E0
2.536778341E0,-2.197165012E0,-4.499368668E-1,5.145465851E0
2.539280802E0,-3.093694687E0,-6.085596085E-1,6.222304344E0
2.541783259E0,-3.797975540E0,-6.236248016E-1,7.765758514E0
2.544285721E0,-4.674764633E0,-7.054710388E-1,9.634483337E0
2.546788164E0,-5.727075577E0,-6.784772873E-1,1.217689228E1
2.549290626E0,-7.254263401E0,-3.998451233E-1,1.529117680E1
2.551793088E0,-8.535263062E0,-4.388446808E-1,1.809017754E1
2.554295550E0,-9.515123367E0,-6.040105820E-1,1.963472366E1
2.556798011E0,-1.022952080E1,-5.956020355E-1,1.905643654E1
2.559300459E0,-1.032827663E1,-5.725393295E-1,1.671337700E1
2.561809612E0,-1.028772354E1,-5.814456940E-1,1.436878109E1
2.564305383E0,-1.076098251E1,-5.315370560E-1,1.265296268E1
2.566807879E0,-1.121858215E1,-8.768787384E-1,1.127999687E1
2.569310341E0,-1.159214783E1,-1.497066498E0,1.028137398E1
2.571812803E0,-1.188338852E1,-2.180996895E0,9.695844650E0
2.574315293E0,-1.210993671E1,-3.039322853E0,9.098379135E0
2.576817755E0,-1.244699764E1,-3.720788002E0,8.236515045E0
2.579320216E0,-1.282089710E1,-4.085639954E0,7.188616753E0
2.581822678E0,-1.296879864E1,-4.176690102E0,6.003617287E0
2.584325139E0,-1.256379795E1,-4.257689476E0,4.846667290E0
2.586827526E0,-1.210179806E1,-4.085639954E0,3.675616980E0
2.589329985E0,-1.159689808E1,-3.833640099E0,2.642717123E0
2.591832524E0,-1.082784748E1,-3.544739723E0,1.775717020E0
2.594334911E0,-1.006584740E1,-3.297689438E0,1.145716906E0
2.596837447E0,-9.227797508E0,-3.057689667E0,7.026169300E-1
2.599339853E0,-8.461256027E0,-2.783185005E0,4.657983780E-2
2.601842389E0,-7.630748749E0,-2.558025360E0,-4.694957733E-1
2.604344815E0,-5.877114773E0,-2.311880112E0,-8.269786835E-1
2.606847351E0,-4.353412151E0,-1.843912125E0,-1.023777246E0
2.609349738E0,-2.773280144E0,-1.485657692E0,-1.337137222E0
2.611852269E0,-1.139123917E0,-1.319622993E0,-1.749313235E0
2.614354733E0,2.479839325E-1,-1.273359299E0,-2.095706463E0
2.616857117E0,1.351984024E0,-1.175258636E0,-2.541656494E0
2.619359606E0,2.302643538E0,-1.250760078E0,-2.957561970E0
2.621862068E0,3.161659956E0,-1.307559967E0,-3.425387144E0
2.624364529E0,3.816965342E0,-1.316928864E0,-3.940716267E0
2.626866981E0,4.221297741E0,-1.277622223E0,-4.248962879E0
2.629369442E0,4.427596092E0,-4.916133881E-1,-3.916266441E0
2.631871904E0,3.964546204E0,-5.256633759E-1,-4.343316555E0
2.634374366E0,3.844546318E0,-5.325632095E-1,-4.551366806E0
2.636876828E0,3.808546305E0,-2.115631104E-1,-4.491366386E0
2.639379290E0,3.846646309E0,-1.596632004E-1,-4.465266705E0
2.641881752E0,3.801646233E0,-2.235631943E-1,-4.446366787E0
2.644384213E0,3.741646290E0,-8.256340027E-2,-4.400316715E0
2.646886674E0,3.628546238E0,-4.161357880E-2,-4.376316547E0
2.649389145E0,3.542508364E0,-4.265403748E-2,-4.082776070E0
2.651891606E0,3.321095467E0,-6.878280640E-2,-3.852125406E0
2.654394068E0,3.239746571E0,9.002685547E-4,-3.574323177E0
2.656896530E0,3.086164474E0,5.538368225E-2,-3.376194000E0
2.659398983E0,3.021477699E0,-8.792972565E-2,-3.030487776E0
2.661901445E0,2.995286942E0,-2.942628860E-1,-2.525889397E0
2.664403888E0,3.137318611E0,-4.278888702E-1,-1.925265193E0
2.666906349E0,3.308113575E0,-6.135177612E-1,-1.330388188E0
2.669408810E0,3.480287075E0,-7.732887268E-1,-1.129990458E0
2.671911256E0,3.734924078E0,-6.482963562E-1,-1.234853983E0
2.674413488E0,4.306858063E0,-3.176755905E-1,-1.748367667E0
2.676915948E0,5.085850716E0,1.770451546E0,-1.911384821E0
2.679418399E0,4.269923210E0,3.418753147E0,-1.009755850E0
2.681920861E0,3.209873438E0,1.607653141E0,-1.405755877E0
2.684423322E0,3.089873314E0,7.837028503E-1,-1.390755892E0
2.686925784E0,2.991923332E0,3.217029572E-1,-1.800855994E0
2.689428245E0,2.902973413E0,-1.122465134E-1,-2.118855953E0
2.691930707E0,2.766923428E0,-4.833469391E-1,-2.255805969E0
2.694433169E0,2.385923386E0,-6.982965469E-1,-2.056756020E0
2.696935631E0,1.858973384E0,-8.883466721E-1,-1.850805998E0
2.699438093E0,1.345649481E0,-9.017314911E-1,-1.563828588E0
2.701940555E0,1.126572609E0,-8.549022675E-1,-1.488571167E0
2.704443032E0,8.657391071E-1,-7.444381714E-1,-1.405779123E0
2.706945493E0,4.562499523E-1,-5.711269379E-1,-1.496885180E0
2.709447949E0,1.847555637E-1,-4.914731979E-1,-1.726741195E0
2.711950410E0,-1.744794846E-2,-4.696788788E-1,-1.885849357E0
2.714452871E0,-7.407879829E-2,-3.955430984E-1,-2.090445757E0
2.716955346E0,-8.618569374E-2,-2.669992447E-1,-2.342770576E0
2.719457818E0,-2.330653667E-1,-1.950101852E-1,-2.048341274E0
2.721960280E0,-1.370654106E-1,-2.110605240E-1,-2.381340981E0
2.724462742E0,6.093454361E-2,-2.620601654E-1,-2.625391006E0
2.726965204E0,2.668845654E-1,-3.100605011E-1,-2.627341270E0
2.729467666E0,3.849346638E-1,-3.051109314E-1,-2.718390942E0
2.731970128E0,5.548846722E-1,-2.661104202E-1,-2.771341324E0
2.734472589E0,6.528346539E-1,-2.140607834E-1,-2.807341099E0
2.736974974E0,8.638846874E-1,-1.780605316E-1,-2.874391079E0
2.739477510E0,9.859120846E-1,-1.184425354E-1,-2.793551683E0
2.741979897E0,1.144106984E0,-8.164501190E-2,-2.818238735E0
2.744482423E0,1.323550463E0,-5.406188965E-2,-2.771311283E0
2.746984810E0,1.334332108E0,-1.117696762E-1,-2.703486443E0
2.749487347E0,1.341925859E0,-1.465950012E-1,-2.520769596E0
2.751989805E0,1.195058465E0,-1.809520721E-1,-2.284861088E0
2.754492267E0,1.165306926E0,-2.265644073E-1,-2.027911663E0
2.756994651E0,1.166160822E0,-2.000217438E-1,-1.732448101E0
2.759497111E0,9.654880762E-1,-1.823406219E-1,-1.513865352E0
2.761999572E0,9.345880747E-1,-1.973400116E-1,-1.266815305E0
2.764502034E0,8.604880571E-1,-1.872901917E-1,-1.082765222E0
2.767004495E0,7.715380192E-1,-2.232904434E-1,-7.668651342E-1
2.769506957E0,8.364880085E-1,-1.923904419E-1,-5.628652573E-1
2.772009419E0,9.875380993E-1,-2.063407898E-1,-4.647651911E-1
2.774511881E0,1.056538105E0,-1.632900238E-1,-3.998152018E-1
2.777014343E0,1.243588090E0,-1.182909012E-1,-2.948151827E-1
2.779516786E0,9.829107523E-1,1.417446136E-2,2.266736031E-1
2.782019248E0,1.038792849E0,1.119575500E-1,2.584034204E-1
2.784521709E0,1.120522499E0,3.340578079E-1,3.157044649E-1
2.787024146E0,1.234019637E0,4.893112183E-1,5.043880939E-1
2.789526607E0,1.151464224E0,5.985021591E-1,5.687440634E-1
2.792029068E0,1.128627062E0,7.297801971E-1,6.260873079E-1
2.794531505E0,1.272227287E0,1.013898849E0,6.958616972E-1
2.797033967E0,1.373320580E0,1.254394531E0,7.480781078E-1
2.799536444E0,1.456022501E0,1.544491291E0,8.645226955E-1
2.802038906E0,1.629931450E0,1.838930130E0,9.603098631E-1
2.804541368E0,1.675605774E0,2.149972916E0,8.667000532E-1
2.807043830E0,1.802505732E0,3.397073269E0,-3.763499260E-1
2.809546292E0,2.839605808E0,5.004023075E0,-9.583501816E-1
2.812048753E0,3.584505796E0,5.328023434E0,-3.714001179E-1
2.814550984E0,3.002505779E0,4.945073128E0,2.086499929E-1
2.817053444E0,2.568555832E0,4.911023140E0,4.336500168E-1
2.819555905E0,2.360505819E0,4.719023228E0,3.496500254E-1
2.822058367E0,2.204505920E0,4.473023415E0,2.566499710E-1
2.824560807E0,1.845709085E0,4.404723644E0,3.945510387E-1
2.827063499E0,1.977700949E0,4.356616020E0,6.813466549E-1
2.829565732E0,2.072275400E0,4.240253448E0,9.263545275E-1
2.832068438E0,2.155867338E0,4.005260944E0,1.192258954E0
2.834570670E0,2.054319859E0,3.897431850E0,1.483330727E0
2.837073361E0,2.257844925E0,3.876538754E0,1.926023483E0
2.839575607E0,2.234909773E0,3.825554848E0,2.565981388E0
2.842078067E0,2.248851299E0,3.783760548E0,3.102802992E0
2.844580505E0,2.164576769E0,3.740066051E0,3.272270679E0
2.847082966E0,2.147784233E0,3.632598400E0,3.415447712E0
2.849585428E0,1.977181435E0,3.460359573E0,3.384334564E0
2.852087903E0,1.951233506E0,3.179821968E0,3.445603848E0
2.854590365E0,1.944183588E0,2.930821896E0,3.467653990E0
2.857092827E0,1.831233501E0,2.585821629E0,3.268604040E0
2.859595289E0,1.656183481E0,2.231822014E0,2.940703869E0
2.862097751E0,1.395183563E0,1.867771626E0,2.736703873E0
2.864600213E0,1.129233479E0,1.484821320E0,2.652704000E0
2.867102674E0,6.531335115E-1,1.076821327E0,2.528653860E0
2.869605135E0,1.651834846E-1,7.178716660E-1,2.370703936E0
2.872107596E0,-1.302653909E0,5.949392319E-1,2.140379667E0
2.874610057E0,-2.363974571E0,3.323173523E-1,2.020220041E0
2.877112519E0,-3.461119175E0,-2.020025253E-1,1.899085760E0
2.879614967E0,-4.721087456E0,-8.692798615E-1,1.743106246E0
2.882117439E0,-5.943574905E0,-1.675540924E0,1.511985540E0
2.884619901E0,-6.861234188E0,-2.689785004E0,1.236392975E0
2.887122363E0,-7.128132343E0,-3.717244148E0,1.335552096E0
2.889624804E0,-6.494504929E0,-4.685859680E0,1.763534904E0
2.892127265E0,-5.586452961E0,-5.447216034E0,2.638789892E0
2.894629726E0,-5.160452843E0,-6.242216110E0,3.242689848E0
2.897132187E0,-5.260503292E0,-7.185265541E0,3.510739803E0
2.899634574E0,-5.637453079E0,-8.318217278E0,3.431689739E0
2.902137033E0,-5.665503025E0,-9.477267265E0,3.294739723E0
2.904639495E0,-5.783403397E0,-1.040726757E1,3.055789948E0
2.907141956E0,-5.900403023E0,-1.130231762E1,2.626789808E0
2.909644418E0,-6.022503376E0,-1.208126736E1,2.145739794E0
2.912146855E0,-6.724207878E0,-1.235612774E1,1.347837925E0
2.914649317E0,-6.504666805E0,-1.217229843E1,1.167724729E0
2.917151779E0,-6.384498119E0,-1.197722912E1,1.035031319E0
2.919654231E0,-6.108619690E0,-1.166521740E1,5.911230445E-1
2.922156693E0,-5.325225830E0,-1.107766247E1,1.171730757E-1
2.924659141E0,-4.325626373E0,-1.041602325E1,-3.206481934E-1
2.927161603E0,-3.766638517E0,-9.711894989E0,-5.757955313E-1
2.929664011E0,-4.059928894E0,-8.130360603E0,-1.215816498E0
2.932166472E0,-4.072073460E0,-6.812686920E0,-1.655230761E0
2.934668933E0,-3.748073339E0,-5.930686951E0,-1.832230806E0
2.937171394E0,-3.784073353E0,-5.039686203E0,-1.971280813E0
2.939673855E0,-4.014023304E0,-4.136686325E0,-2.153230667E0
2.942176317E0,-4.486073494E0,-3.317687035E0,-2.196280718E0
2.944678779E0,-4.893023491E0,-2.637736320E0,-2.213230848E0
2.947181241E0,-5.370023727E0,-2.034736633E0,-2.261230707E0
2.949683703E0,-5.892023563E0,-1.452736855E0,-2.313280821E0
2.952186165E0,-6.545926094E0,-9.641456604E-1,-2.498893261E0
2.954688627E0,-7.093056202E0,-5.321340561E-1,-2.642705202E0
2.957190857E0,-7.508302212E0,-1.505689621E-1,-2.793550014E0
2.959693327E0,-7.897213936E0,1.460838318E-1,-2.933173656E0
2.962195788E0,-7.460124969E0,5.463247299E-1,-2.870397806E0
2.964698250E0,-5.116829395E0,1.684048653E0,-2.305485725E0
2.967200726E0,-6.724726677E0,2.113415241E0,-2.656747103E0
2.969703187E0,-7.097822189E0,1.955754757E0,-2.944516659E0
2.972205654E0,-6.774477005E0,1.667032719E0,-2.731955051E0
2.974708115E0,-7.349576950E0,1.539982796E0,-2.481005192E0
2.977210577E0,-7.766576767E0,1.461082458E0,-2.314955235E0
2.979713269E0,-7.998476982E0,1.415032387E0,-2.155055523E0
2.982215502E0,-8.103476524E0,1.245082855E0,-1.927055240E0
2.984718192E0,-8.089527130E0,1.029082298E0,-1.698005319E0
2.987220425E0,-8.043477058E0,8.349828720E-1,-1.434005380E0
2.989722884E0,-7.931576729E0,5.619821548E-1,-1.159055352E0
2.992225346E0,-8.220450401E0,1.365671158E-1,-8.493827581E-1
2.994727808E0,-7.948330879E0,-1.523637772E-1,-5.765055418E-1
2.997230274E0,-7.702771664E0,-3.376178741E-1,-2.992293835E-1
2.999732736E0,-7.365809441E0,-4.598960876E-1,-7.036948204E-2
3.002235168E0,-6.965303421E0,-6.196184158E-1,1.000411510E-1
3.004737630E0,-6.508817196E0,-6.141920090E-1,2.398570776E-1
3.007240092E0,-6.108492374E0,-6.818227768E-1,3.844094276E-1
3.009742468E0,-5.703233719E0,-7.923688889E-1,5.284186006E-1
3.012245004E0,-5.339496613E0,-7.466068268E-1,6.561305523E-1
3.014747387E0,-4.807177544E0,-5.918064117E-1,6.313427091E-1
3.017249923E0,-4.608127594E0,-5.318059921E-1,6.223427057E-1
3.019752387E0,-4.407127857E0,-5.108060837E-1,6.103426814E-1
3.022254848E0,-4.117177963E0,-5.367555618E-1,6.482927203E-1
3.024757310E0,-3.889177799E0,-5.318059921E-1,5.432927012E-1
3.027259772E0,-3.576127529E0,-5.348062515E-1,4.783427119E-1
3.029762233E0,-3.303127766E0,-5.918064117E-1,4.303426743E-1
3.032264694E0,-2.989177704E0,-6.398057938E-1,3.892426491E-1
3.034767155E0,-2.720753431E0,-7.385597229E-1,4.817782640E-1
3.037269616E0,-2.384164572E0,-8.672180176E-1,4.840096235E-1
3.039771988E0,-2.035548925E0,-9.900226593E-1,5.021181107E-1
3.042274448E0,-1.777366519E0,-1.052526474E0,5.879681110E-1
3.044776909E0,-1.563431025E0,-1.096796036E0,6.453630924E-1
3.047279371E0,-1.446164489E0,-1.113281250E0,8.121652603E-1
3.049781833E0,-1.324821949E0,-1.172258377E0,9.471060038E-1
3.052284294E0,-1.180668116E0,-1.212651253E0,1.084811449E0
3.054786751E0,-1.030355453E0,-1.244574547E0,1.292906046E0
3.057289213E0,-9.361960888E-1,-1.314723969E0,1.475585699E0
3.059791690E0,-8.757508993E-1,-1.366190910E0,1.763042450E0
3.062294152E0,-7.218508720E-1,-1.390191078E0,1.902992368E0
3.064796614E0,-5.757509470E-1,-1.421240807E0,2.210042477E0
3.067299075E0,-4.107508659E-1,-1.442240715E0,2.403992414E0
3.069801536E0,-2.907509804E-1,-1.504190445E0,2.528042316E0
3.072303997E0,-2.768008709E-1,-1.497290611E0,2.772992373E0
3.074806458E0,-3.888509274E-1,-1.339190483E0,2.958992481E0
3.077308920E0,-5.157508850E-1,-1.248291016E0,3.207992554E0
3.079811382E0,-8.374644518E-1,-1.107274055E0,3.504063129E0
3.082313844E0,-1.044905305E0,-9.029083252E-1,3.652473927E0
3.084816305E0,-1.203279376E0,-7.228651047E-1,3.771777391E0
3.087318767E0,-1.493059874E0,-5.363693237E-1,3.946934223E0
3.089821228E0,-1.843532205E0,-3.852882385E-1,4.048613548E0
3.092323455E0,-2.051901817E0,-1.807384491E-1,4.137309074E0
3.094825915E0,-2.333084345E0,4.581928253E-2,4.137091637E0
3.097328380E0,-2.608749628E0,2.456703186E-1,4.183451176E0
3.099830842E0,-2.730726480E0,4.620895386E-1,4.217985630E0
3.102333303E0,-2.922726393E0,5.840396881E-1,4.193985939E0
3.104835996E0,-3.089826584E0,7.539892197E-1,4.208985806E0
3.107338228E0,-3.235776424E0,8.640899658E-1,4.136985779E0
3.109840919E0,-3.317826509E0,9.380397797E-1,4.074885845E0
3.112343151E0,-3.401826382E0,1.020090103E0,4.040986061E0
3.114845842E0,-3.465726376E0,9.570894241E-1,3.923985958E0
3.117348074E0,-3.544776440E0,8.090400696E-1,3.935986042E0
3.119850562E0,-3.633011818E0,6.791667938E-1,3.831979275E0
3.122353024E0,-3.553738594E0,5.591526031E-1,3.588775396E0
3.124855485E0,-3.459498405E0,2.795410156E-1,3.491568327E0
3.127357938E0,-3.358486414E0,-7.791233063E-2,3.334916592E0
3.129860399E0,-3.264906406E0,-4.566106796E-1,3.116920233E0
3.132362861E0,-3.437761545E0,-6.951255798E-1,2.956260920E0
3.134865323E0,-4.029809952E0,-6.965522766E-1,2.643326283E0
3.137367785E0,-4.487443447E0,-7.696752548E-1,2.519688129E0
3.139870233E0,-4.703493595E0,-9.798974991E-1,2.804365635E0
3.142372695E0,-4.790259361E0,-1.222585678E0,3.049341440E0
3.144875156E0,-4.869907856E0,-1.376169205E0,3.273384094E0
3.147377617E0,-4.924696922E0,-1.610508919E0,3.576740980E0
3.149880059E0,-5.083018303E0,-1.859219551E0,3.961902857E0
3.152382520E0,-5.309946060E0,-2.067730904E0,4.333842278E0
3.154884982E0,-5.563896179E0,-2.172731400E0,4.702841759E0
3.157387444E0,-5.544996262E0,-2.093681335E0,5.174741745E0
3.159889906E0,-6.351995945E0,-2.253730774E0,5.205791950E0
3.162392368E0,-7.197996140E0,-2.673730850E0,5.179841995E0
3.164894753E0,-7.587996483E0,-2.895730972E0,5.006742001E0
3.167397212E0,-8.286995888E0,-3.053681374E0,5.076791763E0
3.169899751E0,-9.151896477E0,-3.252731323E0,5.399742126E0
3.172402162E0,-9.852716446E0,-3.323036194E0,6.154310703E0
3.174904698E0,-9.361010551E0,-3.058910370E0,7.320545197E0
3.177407085E0,-1.014324379E1,-2.823801041E0,8.346987724E0
3.179909573E0,-1.233611298E1,-3.419404984E0,9.131465912E0
3.182412035E0,-1.414166164E1,-3.895581245E0,1.123321533E1
3.184914496E0,-1.558480930E1,-4.419226646E0,1.337065411E1
3.187416958E0,-1.630234909E1,-4.744046211E0,1.497016716E1
3.189919419E0,-1.637200928E1,-4.962422371E0,1.577997684E1
3.192421881E0,-1.578454781E1,-5.108148575E0,1.558871937E1
3.194924381E0,-1.444874287E1,-5.213266373E0,1.438492870E1
3.197426843E0,-1.281832981E1,-5.246702194E0,1.251037598E1
3.199929305E0,-1.127332973E1,-5.289752007E0,1.054642582E1
3.202431767E0,-9.846229553E0,-5.174702644E0,8.798325539E0
3.204934229E0,-8.689279556E0,-5.059802055E0,7.246425629E0
3.207436690E0,-7.971229553E0,-4.961702347E0,5.739376068E0
3.209939151E0,-7.420279503E0,-5.349752426E0,4.583325386E0
3.212441612E0,-6.390229225E0,-5.682752609E0,3.294375420E0
3.214944073E0,-5.829229355E0,-5.960702896E0,2.314425468E0
3.217446524E0,-4.640378952E0,-6.125354767E0,1.154612064E0
3.219948986E0,-3.789279461E0,-6.718659401E0,7.508766651E-1
3.222451444E0,-3.099830151E0,-7.170630455E0,2.429156303E-1
3.224953906E0,-2.294206858E0,-7.522621155E0,-2.581936717E-1
3.227456368E0,-1.301050186E0,-7.707944870E0,-8.526912928E-1
3.229958589E0,-1.968521178E-1,-8.343345642E0,-1.137243629E0
3.232461049E0,1.109097838E0,-8.745573997E0,-1.507779002E0
3.234963510E0,2.041340351E0,-8.950845718E0,-1.909332991E0
3.237465972E0,2.830703497E0,-9.545142174E0,-2.205068827E0
3.239968433E0,3.642653704E0,-1.008919239E1,-2.591168880E0
3.242470895E0,4.387703419E0,-1.045819378E1,-3.084068775E0
3.244973357E0,4.624703407E0,-1.080019283E1,-3.738069057E0
3.247475819E0,4.358603477E0,-1.091314220E1,-4.382168770E0
3.249978281E0,3.654653549E0,-1.061119366E1,-4.995069027E0
3.252480743E0,2.878703594E0,-1.020619297E1,-5.546168804E0
3.254983205E0,2.248703480E0,-9.871243477E0,-6.061119080E0
3.257485666E0,2.126245737E0,-9.504812241E0,-7.195247173E0
3.259988141E0,1.314031005E0,-9.084016800E0,-7.412502766E0
3.262490612E0,1.031800985E0,-8.729312897E0,-7.581729889E0
3.264993073E0,8.186315298E-1,-8.578363419E0,-7.625901222E0
3.267495534E0,6.952528954E-1,-8.180345535E0,-7.468648911E0
3.269998020E0,6.390400529E-1,-7.743423462E0,-7.276124477E0
3.272500482E0,5.792943835E-1,-7.333539963E0,-7.055239677E0
3.275002944E0,4.798035920E-1,-6.784588814E0,-6.832890987E0
3.277505396E0,2.659171820E-1,-6.410044670E0,-6.781126499E0
3.280007858E0,1.391714811E-2,-5.898094177E0,-6.551176548E0
3.282510243E0,-2.710828483E-1,-5.409093857E0,-6.391126633E0
3.285012702E0,-4.551328719E-1,-4.917994499E0,-6.319126606E0
3.287515164E0,-6.420328617E-1,-4.461093903E0,-6.345076561E0
3.290017625E0,-9.321329594E-1,-4.101994514E0,-6.570076466E0
3.292520087E0,-1.270082951E0,-3.692044258E0,-6.808126450E0
3.295022625E0,-1.576083064E0,-3.242044449E0,-6.994126320E0
3.297525012E0,-2.006796837E0,-2.848441124E0,-7.165299416E0
3.300027549E0,-2.575349092E0,-2.461030960E0,-7.401186466E0
3.302529964E0,-3.056359291E0,-2.075775146E0,-7.544477463E0
3.305032501E0,-3.242353201E0,-1.803321838E0,-7.685750008E0
3.307534887E0,-2.972733974E0,-1.734045029E0,-7.482813358E0
3.310037347E0,-2.697509050E0,-1.489987373E0,-6.695469856E0
3.312539808E0,-2.719563246E0,-1.021150589E0,-4.525578976E0
3.315042275E0,-3.424756527E0,-3.593330383E-1,-4.774272442E-1
3.317544736E0,-4.332494736E0,2.490491867E-1,4.845868111E0
3.320047226E0,-5.516061783E0,9.590215683E-1,1.097482204E1
3.322549688E0,-6.601161957E0,1.428071976E0,1.614277267E1
3.325052150E0,-6.424161911E0,1.526021957E0,1.650682259E1
3.327554612E0,-4.604061127E0,1.246122360E0,1.203577232E1
3.330057074E0,-2.407161474E0,5.390214920E-1,7.383822441E0
3.332559536E0,-9.440615177E-1,1.710720062E-1,3.973721981E0
3.335061766E0,2.793860435E-2,3.071784973E-3,1.513721943E0
3.337564457E0,5.818886757E-1,-1.458778381E-1,1.298219562E-1
3.340066920E0,1.448900938E0,-2.740974426E-1,-2.590661049E-1
3.342569382E0,1.688198090E0,-3.824281693E-1,-4.417827129E-1
3.345071823E0,1.796216965E0,-4.607915878E-1,-5.593011975E-1
3.347574285E0,1.733021498E0,-2.650003433E-1,-9.706574082E-1
3.350076747E0,1.882115245E0,-3.466434479E-1,-1.057398677E0
3.352579189E0,1.801075578E0,-2.836055756E-1,-9.610690475E-1
3.355081650E0,1.708322167E0,-1.338968277E-1,-1.035409927E0
3.357583881E0,1.538015127E0,-4.553318024E-2,-1.099461675E0
3.360086341E0,1.302485466E0,1.489143372E-1,-1.298341513E0
3.362588802E0,6.774353981E-1,4.028644562E-1,-1.434391499E0
3.365091264E0,1.144855022E-1,5.398139954E-1,-1.307341576E0
3.367593726E0,-5.444645882E-1,7.189140320E-1,-1.221391559E0
3.370096187E0,-1.210464716E0,9.589138031E-1,-1.006291509E0
3.372598649E0,-1.610514641E0,1.051914215E0,-8.523914814E-1
3.375101110E0,-1.820514679E0,1.073814392E0,-1.056391478E0
3.377603572E0,-1.780464649E0,1.080863953E0,-1.336291552E0
3.380106024E0,-1.640168905E0,1.104990005E0,-1.546481490E0
3.382608486E0,-1.582168341E0,1.142260551E0,-1.642302513E0
3.385110939E0,-1.337114573E0,1.166984558E0,-1.597690105E0
3.387613401E0,-1.003546238E0,1.231184006E0,-1.443381548E0
3.390115852E0,-5.808181763E-1,1.182583809E0,-1.266183615E0
3.392618313E0,-1.315515041E-1,1.207393646E0,-1.102497697E0
3.395120789E0,3.438763618E-1,1.195147514E0,-1.011675715E0
3.397623250E0,7.405617237E-1,1.140143394E0,-9.468793869E-1
3.400125712E0,1.140611768E0,1.188143730E0,-8.819293976E-1
3.402628174E0,1.569611788E0,1.310243607E0,-7.719794512E-1
3.405130636E0,1.880561829E0,1.379242897E0,-7.079294324E-1
3.407633021E0,2.168561697E0,1.492193222E0,-6.669794321E-1
3.410135481E0,2.458511829E0,1.640243530E0,-6.738793850E-1
3.412637942E0,2.686511755E0,1.794143200E0,-6.479294300E-1
3.415140404E0,2.871611834E0,2.017193317E0,-6.258794069E-1
3.417642866E0,3.255176544E0,2.201044083E0,-7.584455013E-1
3.420145346E0,3.467372417E0,2.471941948E0,-8.707981110E-1
3.422647808E0,3.693173170E0,2.789720058E0,-9.497262239E-1
3.425150346E0,3.868829250E0,3.024137020E0,-1.095319986E0
3.427652733E0,4.156533241E0,3.258603096E0,-1.185499191E0
3.430155269E0,4.349002838E0,3.422950268E0,-1.285026073E0
3.432657636E0,4.556398869E0,3.501426697E0,-1.501101971E0
3.435160095E0,4.830821037E0,3.621118069E0,-1.667405605E0
3.437662539E0,5.057470322E0,3.717244625E0,-1.806998014E0
3.440165000E0,5.277520180E0,3.879244804E0,-1.859948039E0
3.442667462E0,5.443420410E0,3.999244690E0,-1.943048000E0
3.445169924E0,5.673520088E0,4.140244484E0,-2.076997995E0
3.447672386E0,5.979519844E0,4.270144463E0,-2.240047932E0
3.450174848E0,6.180520058E0,4.287244797E0,-2.397997856E0
3.452677310E0,6.398469925E0,4.330144405E0,-2.525048018E0
3.455179772E0,6.607419968E0,4.287244797E0,-2.633047819E0
3.457682233E0,6.864202023E0,4.115703583E0,-2.871392488E0
3.460184464E0,7.058343887E0,4.026849747E0,-2.888744593E0
3.462687182E0,7.291045189E0,4.004413605E0,-2.709317923E0
3.465189415E0,7.487887383E0,4.059496880E0,-2.465123892E0
3.467692081E0,7.660609245E0,4.067884445E0,-2.129583120E0
3.470194545E0,7.844834805E0,3.984835148E0,-1.741730928E0
3.472697006E0,8.065308571E0,3.907528877E0,-1.449671268E0
3.475199464E0,8.221900940E0,3.842723846E0,-1.344859362E0
3.477701926E0,8.198273659E0,3.777785778E0,-1.249699354E0
3.480204387E0,8.301174164E0,3.741785526E0,-1.110799313E0
3.482706618E0,8.407223701E0,3.701885700E0,-1.036699295E0
3.485209077E0,8.474273682E0,3.650885582E0,-1.053799391E0
3.487711539E0,8.469174385E0,3.602885723E0,-1.060699224E0
3.490214001E0,8.469174385E0,3.523835659E0,-1.053799391E0
3.492716462E0,8.572223663E0,3.475835800E0,-9.817993045E-1
3.495218924E0,8.665224075E0,3.475835800E0,-9.526993036E-1
3.497721385E0,8.674876213E0,3.451545238E0,-9.458690882E-1
3.500223833E0,8.637121201E0,3.484180450E0,-9.409497976E-1
3.502726261E0,8.624034882E0,3.519795895E0,-9.504371881E-1
3.505228723E0,8.563625336E0,3.526538372E0,-9.643454552E-1
3.507731185E0,8.433046341E0,3.520846844E0,-1.036222696E0
3.510233622E0,8.397045135E0,3.453796864E0,-1.022122741E0
3.512736083E0,8.295207024E0,3.460955620E0,-9.516093731E-1
3.515238553E0,8.047272682E0,3.397562981E0,-9.584857821E-1
3.517741014E0,7.946322441E0,3.313562870E0,-1.001535773E0
3.520243475E0,7.731372833E0,3.265563011E0,-9.865357876E-1
3.522745937E0,7.479372978E0,3.212462902E0,-1.034535766E0
3.525248399E0,7.268322945E0,3.124563217E0,-1.061535835E0
3.527750861E0,7.070322990E0,3.009512901E0,-1.116435766E0
3.530253246E0,6.890322685E0,2.947563171E0,-1.049535751E0
3.532755706E0,6.682272911E0,2.851562977E0,-9.895358086E-1
3.535258167E0,6.305152893E0,2.803874016E0,-8.198108673E-1
3.537760629E0,6.131644249E0,2.726576805E0,-7.225137949E-1
3.540263086E0,5.931503296E0,2.612618923E0,-5.968659520E-1
3.542765547E0,5.769039154E0,2.470994949E0,-4.851961732E-1
3.545268009E0,5.622728348E0,2.347428799E0,-3.546589613E-1
3.547770467E0,5.415966511E0,2.200945377E0,-2.312966734E-1
3.550272929E0,5.240027428E0,1.980037689E0,-1.154493839E-1
3.552775391E0,4.992087364E0,1.821404457E0,1.680870727E-2
3.555277872E0,4.744441986E0,1.673237801E0,1.540210247E-1
3.557780333E0,4.400467873E0,1.567158699E0,2.830917537E-1
3.560282818E0,4.043178082E0,1.379535675E0,4.843989313E-1
3.562785279E0,3.621466160E0,1.261346817E0,5.777679682E-1
3.565287740E0,3.089343548E0,1.162175179E0,7.798909545E-1
3.567790182E0,2.579883099E0,1.011853218E0,8.155277371E-1
3.570292644E0,2.194833040E0,8.678531647E-1,1.019527793E0
3.572795106E0,1.689933062E0,7.508535385E-1,1.203577876E0
3.575297568E0,1.227933049E0,6.497535706E-1,1.364527822E0
3.577800030E0,7.798830271E-1,4.438028336E-1,1.560577869E0
3.580302492E0,2.818830013E-1,2.308034897E-1,1.819627881E0
3.582804954E0,-2.141671181E-1,3.685283661E-2,2.061577797E0
3.585307415E0,-6.380670071E-1,-1.812467575E-1,2.427577734E0
3.587809876E0,-1.424663663E0,-3.331909180E-1,2.955567360E0
3.590312337E0,-2.062856913E0,-5.825576782E-1,3.319528103E0
3.592814788E0,-2.450047970E0,-8.528451920E-1,3.859470844E0
3.595317249E0,-3.057442188E0,-1.120173454E0,4.263492107E0
3.597819701E0,-3.743083477E0,-1.369531631E0,4.636584759E0
3.600322163E0,-4.487764835E0,-1.620905876E0,4.906907082E0
3.602824395E0,-5.196508408E0,-1.869318008E0,5.186622143E0
3.605326870E0,-6.044001579E0,-2.053940773E0,5.323750019E0
3.607829331E0,-6.754072189E0,-2.214692116E0,5.396039486E0
3.610331793E0,-7.512439251E0,-2.387442589E0,5.376652718E0
3.612834264E0,-7.664889336E0,-2.598113060E0,5.614418507E0
3.615336725E0,-8.830989838E0,-2.543063164E0,5.092418671E0
3.617839187E0,-9.616990089E0,-2.639062881E0,4.683368683E0
3.620341648E0,-1.010793972E1,-2.716162682E0,4.556468487E0
3.622844110E0,-1.079193974E1,-2.732063293E0,4.357418537E0
3.625346572E0,-1.144398975E1,-2.586112976E0,3.955418587E0
3.627849034E0,-1.178598976E1,-2.531063080E0,3.679418564E0
3.630351496E0,-1.194198990E1,-2.562112808E0,3.504368544E0
3.632853958E0,-1.271276760E1,-2.446389198E0,3.089098930E0
3.635356419E0,-1.320595551E1,-2.511584282E0,3.017118931E0
3.637858880E0,-1.362727165E1,-2.710786819E0,3.386426449E0
3.640361332E0,-1.423838329E1,-2.878475189E0,3.516932011E0
3.642863793E0,-1.483424854E1,-3.163653374E0,3.911624908E0
3.645366264E0,-1.545313358E1,-3.400115013E0,4.692328453E0
3.647868650E0,-1.631235123E1,-3.629302979E0,5.342488289E0
3.650371110E0,-1.698990059E1,-3.874751091E0,6.424117088E0
3.652873591E0,-1.786953163E1,-4.060443878E0,7.168720245E0
3.655376053E0,-1.839592743E1,-4.228524208E0,7.405449867E0
3.657878514E0,-1.855192947E1,-4.258934021E0,7.471271515E0
3.660380985E0,-1.816320801E1,-4.373961449E0,7.279314995E0
3.662883446E0,-1.720429420E1,-4.292851448E0,6.526796818E0
3.665385908E0,-1.574861050E1,-4.112192154E0,5.694781303E0
3.667888375E0,-1.356472683E1,-3.842736244E0,5.273502350E0
3.670390837E0,-1.125047779E1,-3.422433853E0,4.825895786E0
3.672893318E0,-9.367537498E0,-2.999763489E0,4.414257050E0
3.675395780E0,-8.004636765E0,-2.585762978E0,4.021257401E0
3.677898242E0,-6.977586269E0,-2.223813057E0,3.556257010E0
3.680400703E0,-6.084636688E0,-2.068863869E0,3.147207022E0
3.682903164E0,-5.219586372E0,-2.005863190E0,2.673207045E0
3.685405625E0,-4.666536331E0,-1.941813469E0,2.268207073E0
3.687908086E0,-3.938586235E0,-2.051763535E0,1.820307016E0
3.690410547E0,-3.018636227E0,-2.267763138E0,1.367306948E0
3.692913009E0,-1.963934064E0,-2.589084625E0,8.631103039E-1
3.695415471E0,-9.999904633E-1,-2.876646042E0,4.728602171E-1
3.697917703E0,5.532741547E-3,-3.194761276E0,3.020185828E-1
3.700420418E0,1.128188133E0,-3.543527603E0,3.628169894E-1
3.702922650E0,2.160065889E0,-4.000733376E0,4.716484845E-1
3.705425341E0,3.183065891E0,-4.412783623E0,5.365985036E-1
3.707927804E0,4.083966255E0,-4.939733505E0,7.315984964E-1
3.710430300E0,4.772443771E0,-5.393581390E0,8.617435694E-1
3.712932761E0,5.443601608E0,-5.832580566E0,1.036093235E0
3.715435223E0,5.928700447E0,-6.401933670E0,1.079566598E0
3.717937684E0,6.209478378E0,-7.020551682E0,1.199690580E0
3.720439915E0,6.493609428E0,-7.648526192E0,1.302453518E0
3.722942375E0,6.725999355E0,-8.383674622E0,1.380949736E0
3.725444865E0,6.859469414E0,-9.182109833E0,1.408523798E0
3.727947327E0,7.048435688E0,-9.891753197E0,1.361091852E0
3.730449788E0,7.342630386E0,-1.065560722E1,1.226717710E0
3.732952264E0,7.624965668E0,-1.145450974E1,1.085658073E0
3.735454726E0,7.786580086E0,-1.217783642E1,9.965456724E-1
3.737957188E0,7.907969475E0,-1.279860973E1,1.032101274E0
3.740459660E0,8.324199677E0,-1.338090324E1,1.543737650E0
3.742962122E0,8.863122940E0,-1.376159668E1,2.376421928E0
3.745464584E0,9.280503273E0,-1.359403133E1,3.589432716E0
3.747967059E0,9.626581192E0,-1.279364967E1,5.987284184E0
3.750469520E0,9.552480698E0,-1.146464920E1,6.933334351E0
3.752971981E0,8.862481117E0,-9.550649643E0,6.324334145E0
3.755474442E0,7.993530750E0,-7.361700058E0,5.160334110E0
3.757976903E0,7.085580349E0,-5.141698837E0,4.221333981E0
3.760479365E0,6.340530396E0,-3.060599327E0,3.340234041E0
3.762981827E0,5.957580566E0,-1.464598656E0,2.679333925E0
3.765484213E0,5.921580315E0,-2.726993561E-1,2.205333948E0
3.767986673E0,5.790225029E0,7.021808624E-1,1.814292192E0
3.770489134E0,5.770410061E0,1.502987862E0,1.495502472E0
3.772991606E0,5.791641235E0,2.133631706E0,1.240344405E0
3.775494067E0,5.756622314E0,2.666599274E0,1.161103725E0
3.777996529E0,5.649000168E0,3.285856247E0,1.190329194E0
3.780498999E0,5.459207058E0,3.894641876E0,1.289714217E0
3.783001538E0,5.282798290E0,4.472259521E0,1.391132116E0
3.785503924E0,5.058721542E0,5.063529491E0,1.469802260E0
3.788006384E0,4.782153130E0,5.607743263E0,1.443462968E0
3.790508846E0,4.506769657E0,6.180600166E0,1.424400091E0
3.793011307E0,4.256172657E0,6.722560883E0,1.350590944E0
3.795513769E0,4.049144745E0,7.218780518E0,1.200903535E0
3.798016230E0,3.840654373E0,7.653048992E0,1.008186579E0
3.800518688E0,3.670038939E0,8.063075066E0,8.601503372E-1
3.803021150E0,3.484038830E0,8.314175606E0,6.270503402E-1
3.805523612E0,3.433038950E0,8.595125198E0,3.521003425E-1
3.808026074E0,3.347088814E0,8.702075005E0,8.210033178E-2
3.810528536E0,3.196038961E0,8.939075470E0,-1.548996866E-1
3.813030767E0,2.981088877E0,9.081125259E0,-3.899497092E-1
3.815533457E0,2.734038830E0,9.181175232E0,-6.768997908E-1
3.818035921E0,2.453988791E0,9.213125229E0,-9.809497595E-1
3.820538382E0,1.743939877E0,9.328779221E0,-1.200311303E0
3.823040839E0,1.212713361E0,9.371181488E0,-1.378595710E0
3.825543300E0,5.988336205E-1,9.323409081E0,-1.546452999E0
3.828045762E0,-1.034885645E-2,9.084487915E0,-1.593720078E0
3.830548223E0,-2.475801110E-1,8.400284767E0,-1.569207668E0
3.833050684E0,-3.732236028E-1,7.684784889E0,-1.552677155E0
3.835552916E0,-5.281444788E-1,7.028137207E0,-1.583512902E0
3.838055394E0,-7.013275623E-1,6.422245026E0,-1.630417228E0
3.840557856E0,-8.325139284E-1,5.961021423E0,-1.652938008E0
3.843060317E0,-8.856208920E-1,5.253579140E0,-1.665742755E0
3.845562774E0,-9.689227343E-1,4.349987984E0,-1.761680245E0
3.848065235E0,-9.108726978E-1,3.542987823E0,-1.905680180E0
3.850567697E0,-7.412588596E-1,2.735215664E0,-2.054211855E0
3.853070158E0,-4.593895674E-1,1.920043468E0,-2.125634193E0
3.855572620E0,-4.166311920E-1,8.417959213E-1,-2.219449997E0
3.858075048E0,-1.374510676E-1,-2.539329529E-1,-2.264462948E0
3.860577510E0,3.100584149E-1,-1.242987633E0,-2.318835735E0
3.863079972E0,8.031084538E-1,-2.247087479E0,-2.531835794E0
3.865582434E0,1.299158454E0,-3.240087509E0,-2.802885771E0
3.868084896E0,1.800158501E0,-4.146087646E0,-3.216885805E0
3.870587357E0,2.238158703E0,-5.091987610E0,-3.729885817E0
3.873089818E0,2.621108532E0,-6.066987991E0,-4.414785862E0
3.875592279E0,3.069158554E0,-6.753987312E0,-5.041785717E0
3.878094740E0,3.354158401E0,-7.238038063E0,-5.760885715E0
3.880597201E0,3.000290871E0,-7.383893967E0,-6.658092022E0
3.883099579E0,2.592950821E0,-7.166781425E0,-7.566318035E0
3.885602039E0,1.966110587E0,-6.669867516E0,-8.440456390E0
3.888104500E0,1.307991266E0,-6.055150986E0,-9.133054733E0
3.890606957E0,6.004508138E-1,-5.383821487E0,-9.456172943E0
3.893109495E0,-6.214389205E-2,-4.726484299E0,-9.593112946E0
3.895611882E0,-7.137199044E-1,-4.139626503E0,-9.596013069E0
3.898114418E0,-1.216820002E0,-3.722625732E0,-9.237063408E0
3.900616805E0,-1.680434704E0,-3.188570023E0,-8.536396980E0
3.903119326E0,-2.092094183E0,-2.555676460E0,-7.686710358E0
3.905621713E0,-2.254079819E0,-1.958569527E0,-6.871192455E0
3.908124172E0,-2.386759043E0,-1.438446999E0,-6.288058758E0
3.910626625E0,-2.466111660E0,-9.501876831E-1,-5.762843609E0
3.913129087E0,-2.507418633E0,-4.167060852E-1,-5.249934196E0
3.915631548E0,-2.467448473E0,4.905414581E-2,-4.703388214E0
3.918134010E0,-2.467679262E0,3.813209534E-1,-4.169475079E0
3.920636453E0,-2.335137129E0,6.993484497E-1,-3.696484804E0
3.923138915E0,-2.172564983E0,1.005709648E0,-3.290949106E0
3.925641357E0,-2.158682108E0,1.284524918E0,-2.919584751E0
3.928143819E0,-2.233965397E0,1.580111504E0,-2.646934271E0
3.930646280E0,-2.303751945E0,1.786514282E0,-2.326397896E0
3.933148761E0,-2.386449099E0,1.999006748E0,-2.053887606E0
3.935651222E0,-2.459900856E0,2.219393253E0,-1.780784965E0
3.938153683E0,-2.484005213E0,2.395784855E0,-1.472964525E0
3.940656140E0,-2.468849659E0,2.511820793E0,-1.275632858E0
3.943158602E0,-2.432849884E0,2.527870655E0,-1.121582866E0
3.945661064E0,-2.370899677E0,2.561920643E0,-1.033532858E0
3.948163526E0,-2.185799599E0,2.520820618E0,-1.033532858E0
3.950665988E0,-1.936799765E0,2.405920506E0,-1.050632954E0
3.953168449E0,-1.677899718E0,2.254870892E0,-1.085582852E0
3.955670680E0,-1.572899818E0,2.123920441E0,-1.155632854E0
3.958173140E0,-1.471799731E0,1.988920689E0,-1.222532868E0
3.960675601E0,-1.513072968E0,1.879594326E0,-1.008031130E0
3.963178063E0,-1.494938135E0,1.709759712E0,-1.084518909E0
3.965680524E0,-1.572973251E0,1.536807060E0,-1.155595779E0
3.968182986E0,-1.666868925E0,1.354501724E0,-1.192157745E0
3.970685447E0,-1.692379236E0,1.136148453E0,-1.176795244E0
3.973187909E0,-1.661329269E0,8.682479858E-1,-1.209795237E0
3.975690380E0,-1.681204796E0,6.253328323E-1,-1.164467216E0
3.978192842E0,-1.744323254E0,4.027357101E-1,-1.108031034E0
3.980695295E0,-1.728630066E0,2.395658493E-1,-9.811671376E-1
3.983197757E0,-1.758617878E0,5.015945435E-2,-8.988218904E-1
3.985700219E0,-1.873080730E0,-1.001739502E-1,-7.493518591E-1
3.988202675E0,-2.001320362E0,-2.348461151E-1,-5.911480188E-1
3.990705136E0,-2.085042953E0,-3.504858017E-1,-5.096675158E-1
3.993207597E0,-2.227671623E0,-4.777364731E-1,-3.719229698E-1
3.995710043E0,-2.445905209E0,-6.648025513E-1,-3.077441454E-1
3.998212429E0,-2.557236433E0,-7.979831696E-1,-1.865509748E-1
4.000714889E0,-2.663286448E0,-9.008836746E-1,-1.765010357E-1
4.003217427E0,-2.811336517E0,-1.000933647E0,-1.336009502E-1
4.005719814E0,-2.972286463E0,-1.115983009E0,-1.606010199E-1
4.008222350E0,-3.158286572E0,-1.211983681E0,-2.275010347E-1
4.010724737E0,-3.293286562E0,-1.259983063E0,-2.275010347E-1
4.013227274E0,-3.479286432E0,-1.276933670E0,-2.945510149E-1
4.015729660E0,-3.760236502E0,-1.233882904E0,-3.425509930E-1
4.018232120E0,-4.006565094E0,-1.177429199E0,-2.661955357E-1
4.020734668E0,-4.103437424E0,-1.119040489E0,-2.710108757E-1
4.023237055E0,-4.126278400E0,-1.160754204E0,-3.193668127E-1
4.025739529E0,-4.136817932E0,-1.143471718E0,-3.063358068E-1
4.028241991E0,-4.191820621E0,-1.216190338E0,-3.052502871E-1
4.030744452E0,-4.277885914E0,-1.214818954E0,-2.885822058E-1
4.033246928E0,-4.385079384E0,-1.238669395E0,-3.004581928E-1
4.035749390E0,-4.555148125E0,-1.129263878E0,-3.103972673E-1
4.038251852E0,-4.658770084E0,-1.046928406E0,-2.411651611E-1
4.040754314E0,-4.488762856E0,-9.751329422E-1,-2.135981321E-1
4.043256776E0,-4.371762753E0,-9.301328659E-1,-1.585482359E-1
4.045759238E0,-4.280712605E0,-9.991331100E-1,-1.105481386E-1
4.048261699E0,-4.179762840E0,-1.011133194E0,-8.159816265E-2
4.050764160E0,-4.141662598E0,-1.013083458E0,-2.354812622E-2
4.053266621E0,-4.031712532E0,-9.871330261E-1,-7.454812527E-2
4.055769082E0,-3.835662603E0,-9.440832138E-1,-4.334981441E-1
4.058271543E0,-3.657762527E0,-9.800834656E-1,-1.166548252E0
4.060774001E0,-3.602917194E0,-1.110430717E0,-1.853889108E0
4.063276463E0,-3.543384552E0,-1.073926926E0,-2.344949961E0
4.065778925E0,-3.506071091E0,-1.085809708E0,-2.690429211E0
4.068281387E0,-3.518683434E0,-1.144329071E0,-2.714349031E0
4.070783618E0,-3.701723814E0,-1.215437889E0,-2.350958824E0
4.073286078E0,-3.878604889E0,-1.229782104E0,-1.668318748E0
4.075788534E0,-4.136142731E0,-1.283448219E0,-7.357903719E-1
4.078290996E0,-4.329977036E0,-1.233501434E0,1.806244850E-1
4.080793458E0,-4.432017326E0,-1.311849594E0,1.132071972E0
4.083295937E0,-4.484541893E0,-1.325664520E0,1.960512996E0
4.085798399E0,-4.549911022E0,-1.328438759E0,2.699618340E0
4.088300860E0,-4.451961040E0,-1.349438667E0,3.266618252E0
4.090803309E0,-4.280001640E0,-1.220671654E0,3.633671522E0
4.093305771E0,-4.299653530E0,-1.000553131E0,3.893192291E0
4.095808199E0,-4.183757305E0,-1.038054466E0,4.264845848E0
4.098310661E0,-3.883063793E0,-1.055804253E0,4.565938950E0
4.100813123E0,-3.720163822E0,-1.177754402E0,4.920989037E0
4.103315584E0,-3.612163782E0,-1.170703888E0,5.198939323E0
4.105818045E0,-3.505063772E0,-1.134703636E0,5.393039227E0
4.108320506E0,-3.366163731E0,-1.132754326E0,5.546039104E0
4.110822967E0,-3.229063749E0,-1.096754074E0,5.639039040E0
4.113325429E0,-3.078163624E0,-1.070803642E0,5.828039169E0
4.115827815E0,-2.920063496E0,-1.017704010E0,5.909939289E0
4.118330352E0,-3.279797554E0,-9.051914215E-1,5.957636356E0
4.120832728E0,-3.409878254E0,-9.376354218E-1,6.064148903E0
4.123335256E0,-3.187173605E0,-1.135322571E0,6.858922005E0
4.125837642E0,-2.892053366E0,-1.482831955E0,7.625698566E0
4.128340102E0,-2.426087379E0,-1.901816368E0,8.769805908E0
4.130842645E0,-2.022180080E0,-2.227921486E0,1.021922588E1
4.133345032E0,-1.741029859E0,-2.498759270E0,1.131486130E1
4.135847597E0,-1.463460803E0,-2.689952850E0,1.221583462E1
4.138349983E0,-1.279410839E0,-2.766003609E0,1.309483528E1
4.140852443E0,-1.087410688E0,-2.775903702E0,1.365988541E1
4.143354904E0,-1.171410799E0,-2.758953094E0,1.350883484E1
4.145857366E0,-1.367460728E0,-2.658903122E0,1.288888550E1
4.148359827E0,-1.735410810E0,-2.560953140E0,1.187788486E1
4.150862289E0,-2.147460938E0,-2.356953621E0,1.069288540E1
4.153364751E0,-2.578410864E0,-2.188953400E0,9.339884758E0
4.155867213E0,-3.319707632E0,-1.976221085E0,7.895671844E0
4.158369675E0,-3.857008934E0,-1.779927254E0,6.460674286E0
4.160872147E0,-4.316718578E0,-1.437374115E0,4.932924747E0
4.163374609E0,-4.776996136E0,-1.245421410E0,3.818017960E0
4.165877083E0,-5.064194202E0,-1.085092545E0,3.058036327E0
4.168379544E0,-5.291882992E0,-8.470487595E-1,2.415028095E0
4.170882005E0,-5.683649063E0,-6.036052704E-1,1.688156605E0
4.173384463E0,-5.957845688E0,-4.214525223E-1,1.038662195E0
4.175886924E0,-6.181109428E0,-2.631464005E-1,5.840079784E-1
4.178389161E0,-6.124902248E0,-3.312969208E-2,8.226847649E-2
4.180891851E0,-6.380952358E0,1.468706131E-1,-3.366814852E-1
4.183394084E0,-6.581952095E0,2.619199753E-1,-6.837815046E-1
4.185896544E0,-6.745002270E0,3.189201355E-1,-1.033731580E0
4.188399005E0,-6.878952503E0,3.838701248E-1,-1.397781730E0
4.190901467E0,-6.890952110E0,4.698200226E-1,-1.694781661E0
4.193403928E0,-7.036902428E0,5.058202744E-1,-1.907781720E0
4.195906390E0,-7.199952126E0,6.069202423E-1,-2.012781620E0
4.198408851E0,-7.408902168E0,6.328706741E-1,-2.060781479E0
4.200911313E0,-7.699003220E0,7.311973572E-1,-2.206875324E0
4.203413775E0,-7.728380203E0,7.907381058E-1,-2.054680586E0
4.205916237E0,-7.855059147E0,8.108673096E-1,-1.986577272E0
4.208418699E0,-8.035773277E0,8.065118790E-1,-1.810144663E0
4.210921137E0,-8.195741653E0,8.291749954E-1,-1.519570708E0
4.213423599E0,-8.231827736E0,8.658523560E-1,-1.201728344E0
4.215926074E0,-8.496521950E0,8.303098679E-1,-8.168269396E-1
4.218428535E0,-8.561804771E0,8.959350586E-1,-3.773064613E-1
4.220930996E0,-8.777805328E0,9.059848785E-1,1.997435093E-1
4.223433382E0,-9.012704849E0,9.539852142E-1,8.246434927E-1
4.225935842E0,-9.246705055E0,9.439353943E-1,1.567743540E0
4.228438380E0,-9.431805611E0,9.008855820E-1,2.461743593E0
4.230940767E0,-9.562754631E0,8.579854965E-1,3.491643667E0
4.233443303E0,-9.680805206E0,7.598857880E-1,4.576743603E0
4.235945690E0,-9.797804832E0,5.299348831E-1,5.853693962E0
4.238448135E0,-9.928890228E0,2.574739456E-1,7.324674606E0
4.240950597E0,-1.002228832E1,4.328155518E-2,8.137826920E0
4.243453029E0,-1.009981060E1,-2.338390350E-1,8.516686440E0
4.245955491E0,-1.022614098E1,-5.939950943E-1,8.610021591E0
4.248457952E0,-1.029796696E1,-9.754505157E-1,8.484637260E0
4.250960419E0,-1.027089310E1,-1.408491135E0,8.281800270E0
4.253462881E0,-1.033181286E1,-1.726760864E0,7.903229713E0
4.255965357E0,-1.032543755E1,-2.125396729E0,7.684122086E0
4.258467819E0,-1.029843807E1,-2.532346725E0,7.543121815E0
4.260970281E0,-1.038243771E1,-2.925347328E0,7.423121929E0
4.263472743E0,-1.044048786E1,-3.435346603E0,7.404071808E0
4.265975204E0,-1.042548752E1,-3.861347198E0,7.522121906E0
4.268477665E0,-1.044948769E1,-4.304447174E0,7.747121811E0
4.270980126E0,-1.024653816E1,-4.615396500E0,7.768122196E0
4.273482587E0,-1.030848789E1,-4.893346786E0,7.519122124E0
4.275985048E0,-1.004588985E1,-5.112378120E0,6.610711098E0
4.278487510E0,-9.642880440E0,-5.248860359E0,5.742492676E0
4.280989972E0,-9.302340508E0,-5.331861496E0,4.537831783E0
4.283492434E0,-8.806134224E0,-5.365036964E0,3.412397385E0
4.285994911E0,-8.347546577E0,-5.324632645E0,2.471509933E0
4.288497373E0,-7.815723896E0,-5.355319023E0,1.687883258E0
4.290999604E0,-7.233115196E0,-5.206486702E0,9.805416465E-1
4.293502053E0,-6.872917175E0,-5.033158302E0,4.649377763E-1
4.296004515E0,-6.270717144E0,-4.827385902E0,-3.153992891E-1
4.298506977E0,-5.923767090E0,-4.851386070E0,-6.593492627E-1
4.301009438E0,-5.652717113E0,-4.847485542E0,-8.532993197E-1
4.303511900E0,-5.559717178E0,-4.823486328E0,-1.167399406E0
4.306014361E0,-5.490717411E0,-4.791385651E0,-1.335399389E0
4.308516823E0,-5.317767143E0,-4.803385735E0,-1.483299255E0
4.311019285E0,-5.173767090E0,-4.885436058E0,-1.687299252E0
4.313521747E0,-4.929717064E0,-5.036485672E0,-1.914399385E0
4.316024190E0,-4.260938168E0,-5.121231079E0,-2.333061457E0
4.318526652E0,-3.827904701E0,-5.312362671E0,-2.430414438E0
4.321029084E0,-3.137581110E0,-5.508625031E0,-2.440279245E0
4.323531545E0,-2.343915939E0,-5.576761246E0,-2.384717941E0
4.326034006E0,-1.844568253E0,-6.063476562E0,-2.425920725E0
4.328536452E0,-1.260787606E0,-6.783938408E0,-2.404974222E0
4.331038914E0,-6.148271561E-1,-7.334907532E0,-2.276417017E0
4.333541300E0,-6.766973436E-2,-7.931590080E0,-2.209316969E0
4.336043751E0,5.801301003E-1,-8.593600273E0,-2.125827074E0
4.338546212E0,1.016527891E0,-9.245613098E0,-2.057478189E0
4.341048674E0,1.469527960E0,-9.705663681E0,-2.060478210E0
4.343551135E0,1.548577905E0,-1.019856262E1,-2.088528156E0
4.346053597E0,1.881577969E0,-1.084761238E1,-2.208528280E0
4.348556059E0,2.343577862E0,-1.126956367E1,-2.397528172E0
4.351058521E0,2.535577774E0,-1.153956223E1,-2.493528366E0
4.353560983E0,2.559577942E0,-1.170756340E1,-2.920428276E0
4.356063445E0,2.657527924E0,-1.187256241E1,-3.502428293E0
4.358565888E0,3.477153778E0,-1.208060646E1,-4.314838409E0
4.361068349E0,4.049770355E0,-1.203949738E1,-4.762257099E0
4.363570810E0,4.009366035E0,-1.188435936E1,-5.146834850E0
4.366073255E0,4.127324581E0,-1.172690392E1,-5.371396065E0
4.368575716E0,4.322427273E0,-1.133058071E1,-5.662631035E0
4.371078163E0,4.592344284E0,-1.078261471E1,-6.257165909E0
4.373580625E0,4.861278534E0,-1.029583836E1,-6.571782589E0
4.376083087E0,4.977252483E0,-9.801389694E0,-6.563831329E0
4.378585328E0,5.233087540E0,-9.185271263E0,-6.373742580E0
4.381088019E0,5.307037830E0,-8.421320915E0,-6.138842583E0
4.383590251E0,5.214037895E0,-7.655270576E0,-6.038792610E0
4.386092942E0,5.134987831E0,-6.857270241E0,-5.927792549E0
4.388595405E0,4.930987835E0,-6.021321297E0,-5.666792870E0
4.391097867E0,4.593037605E0,-5.197220802E0,-5.420792580E0
4.393600328E0,4.189087868E0,-4.388270378E0,-5.147792816E0
4.396102790E0,3.934988022E0,-3.693320274E0,-4.833842754E0
4.398605021E0,3.798038006E0,-3.004220963E0,-4.438742638E0
4.401107480E0,4.232950211E0,-2.364417076E0,-3.567746878E0
4.403609942E0,4.196097851E0,-1.728458405E0,-2.467346430E0
4.406112403E0,3.930317402E0,-1.107267380E0,-5.524286032E-1
4.408614847E0,3.627493620E0,-5.483322144E-1,1.680669427E0
4.411117308E0,3.297800303E0,9.677886963E-2,3.939051390E0
4.413619770E0,2.980421066E0,8.083391190E-1,6.480583668E0
4.416122245E0,2.684194088E0,1.491296768E0,8.639803886E0
4.418624693E0,2.436949253E0,1.953428268E0,9.443983078E0
4.421127155E0,2.520949125E0,2.077478409E0,9.307033539E0
4.423629617E0,2.781949043E0,1.996478558E0,8.149932861E0
4.426132079E0,3.032899141E0,1.788428307E0,6.697032928E0
4.428634541E0,3.250849247E0,1.498477936E0,5.239933014E0
4.431137003E0,3.262849331E0,1.361378670E0,4.099932671E0
4.433639464E0,3.188899040E0,1.273478508E0,3.250032902E0
4.436141925E0,3.123949051E0,1.139378548E0,2.684982777E0
4.438644386E0,3.486481190E0,9.399948120E-1,2.439030170E0
4.441146772E0,3.221467733E0,8.749713898E-1,2.223348141E0
4.443649222E0,2.820043087E0,8.545999527E-1,2.132997036E0
4.446151683E0,2.501706600E0,8.162698746E-1,1.953540564E0
4.448654145E0,2.286879301E0,6.991939545E-1,1.693063378E0
4.451156606E0,2.001879215E0,6.781930923E-1,1.417063475E0
4.453659068E0,1.809303761E0,6.356830597E-1,9.979216456E-1
4.456161529E0,1.537466168E0,5.532760620E-1,4.056984186E-1
4.458663982E0,1.153468847E0,5.753221512E-1,-9.768068790E-2
4.461166444E0,6.524688005E-1,5.852222443E-1,-6.586806774E-1
4.463668906E0,3.074688911E-1,5.543222427E-1,-1.125630736E0
4.466171368E0,8.546876907E-2,5.423221588E-1,-1.521630764E0
4.468673830E0,-6.363129616E-2,6.452226639E-1,-1.894680738E0
4.471176291E0,-1.716313362E-1,8.292722702E-1,-2.273580790E0
4.473678752E0,-1.836311817E-1,9.443225861E-1,-2.438580751E0
4.476181213E0,-1.806311607E-1,9.612722397E-1,-2.469630718E0
4.478683674E0,3.268878460E-1,9.755716324E-1,-2.560342550E0
4.481186155E0,7.420771122E-1,1.075686455E0,-2.497684002E0
4.483688387E0,1.158813477E0,1.210598946E0,-2.462102652E0
4.486191078E0,1.580094934E0,1.320060730E0,-2.347002745E0
4.488693311E0,2.022912979E0,1.450483799E0,-2.267317057E0
4.491196001E0,2.438461781E0,1.609798431E0,-2.168992996E0
4.493698234E0,2.903697252E0,1.796251774E0,-2.092081547E0
4.496200693E0,3.344391823E0,1.996535301E0,-2.037668943E0
4.498703385E0,3.775492907E0,2.227023602E0,-2.023724556E0
4.501205618E0,4.189767361E0,2.514039516E0,-1.931395054E0
4.503708309E0,4.589067459E0,2.717401028E0,-1.783243299E0
4.506210541E0,4.867366791E0,2.932374001E0,-1.664037943E0
4.508713010E0,5.116270542E0,3.092630863E0,-1.682286143E0
4.511215471E0,5.480257034E0,3.296536922E0,-1.614867806E0
4.513717933E0,5.748307228E0,3.409487247E0,-1.635867834E0
4.516220395E0,6.069307327E0,3.569537163E0,-1.578867912E0
4.518722856E0,6.368257046E0,3.720437050E0,-1.446867824E0
4.521225318E0,6.491257191E0,3.835487366E0,-1.422867775E0
4.523727780E0,6.663307190E0,3.907487392E0,-1.360917807E0
4.526230242E0,6.826207161E0,3.972437382E0,-1.350867867E0
4.528732704E0,7.008307457E0,4.099487305E0,-1.405917883E0
4.531235175E0,7.262442589E0,4.192425728E0,-1.652619839E0
4.533737636E0,7.304741859E0,4.308399200E0,-1.761868715E0
4.536240097E0,7.270440102E0,4.384020805E0,-1.848488331E0
4.538742558E0,7.270825386E0,4.440046787E0,-1.923265100E0
4.541245019E0,7.404115677E0,4.375829697E0,-1.965564966E0
4.543747481E0,7.594741821E0,4.370122910E0,-1.990674973E0
4.546249958E0,7.834131241E0,4.292075634E0,-2.136370182E0
4.548752344E0,8.125100136E0,4.246557236E0,-2.241518021E0
4.551254803E0,8.434100151E0,4.188507080E0,-2.349517822E0
4.553757260E0,8.752035141E0,4.102454185E0,-2.422232866E0
4.556259721E0,8.992611885E0,4.073867798E0,-2.409555674E0
4.558762183E0,9.225747108E0,4.009867668E0,-2.453664064E0
4.561264625E0,9.443931580E0,3.913094521E0,-2.405424595E0
4.563767087E0,9.675907135E0,3.842789173E0,-2.356251240E0
4.566269549E0,9.899540901E0,3.791117668E0,-2.262219429E0
4.568772011E0,1.004636765E1,3.741903305E0,-2.208252430E0
4.571274521E0,1.020326614E1,3.665679455E0,-2.098681211E0
4.573776983E0,9.854129791E0,3.767230988E0,-1.939941406E0
4.576279445E0,9.974129677E0,3.798281193E0,-1.759941339E0
4.578781906E0,9.977129936E0,3.827230930E0,-1.596891403E0
4.581284367E0,9.989130020E0,3.798281193E0,-1.481991291E0
4.583786828E0,9.986129761E0,3.798281193E0,-1.376991391E0
4.586289289E0,9.969180107E0,3.774281025E0,-1.258941412E0
4.588791750E0,9.914130211E0,3.709180832E0,-1.227891445E0
4.591294212E0,9.948180199E0,3.712181091E0,-1.175991297E0
4.593796445E0,9.814532280E0,3.704388142E0,-1.127569556E0
4.596299139E0,9.610221863E0,3.615626335E0,-1.096694112E0
4.598801372E0,9.402881622E0,3.560883522E0,-1.084399700E0
4.601304062E0,9.167787552E0,3.517303944E0,-1.110250473E0
4.603806295E0,8.815215111E0,3.367900848E0,-1.097519398E0
4.606309000E0,8.634713173E0,3.306034088E0,-1.110087156E0
4.608811464E0,8.540737152E0,3.171993256E0,-1.232487440E0
4.611313695E0,8.212336540E0,3.012199879E0,-1.359693646E0
4.613816385E0,7.912609100E0,2.912247658E0,-1.460742116E0
4.616318618E0,7.574500084E0,2.840317726E0,-1.613013744E0
4.618821091E0,7.361499786E0,2.761268139E0,-1.733013749E0
4.621323553E0,6.957462311E0,2.683451176E0,-1.747522712E0
4.623826029E0,6.654423714E0,2.642820835E0,-1.693841457E0
4.626328491E0,6.669129848E0,2.589496613E0,-1.731134295E0
4.628830952E0,6.397217274E0,2.464355946E0,-1.716713667E0
4.631333414E0,6.197453976E0,2.433815002E0,-1.588782787E0
4.633835884E0,6.068552017E0,2.393120766E0,-1.518094182E0
4.636338346E0,5.871845722E0,2.379705429E0,-1.404512882E0
4.638840808E0,5.723881245E0,2.380144119E0,-1.276767850E0
4.641343256E0,5.778339386E0,2.390393257E0,-1.018666148E0
4.643845718E0,5.767825127E0,2.288591862E0,-7.776392698E-1
4.646348180E0,5.668272018E0,2.199490547E0,-4.560366869E-1
4.648850670E0,5.604870796E0,2.058495522E0,-5.268099904E-2
4.651353131E0,5.547639847E0,1.928181171E0,3.125438094E-1
4.653855583E0,5.066195488E0,1.752560139E0,4.591541588E-1
4.656358044E0,4.896245956E0,1.519459724E0,7.942541838E-1
4.658860505E0,4.625195503E0,1.265509605E0,1.079254150E0
4.661362891E0,4.441295624E0,9.115095139E-1,1.347154140E0
4.663865351E0,4.070196152E0,5.354595184E-1,1.591204166E0
4.666367813E0,3.387245655E0,1.334600449E-1,1.893154144E0
4.668870274E0,2.664245605E0,-2.164897919E-1,2.248204231E0
4.671372736E0,2.032295704E0,-7.695398331E-1,2.669254303E0
4.673875197E0,9.339783788E-1,-1.263729095E0,3.615569592E0
4.676377659E0,7.832151651E-2,-1.792029381E0,4.604302883E0
4.678880116E0,-1.097157240E0,-2.386630058E0,5.958426476E0
4.681382578E0,-2.200105190E0,-3.138702393E0,7.363359928E0
4.683885040E0,-3.308145523E0,-3.783008575E0,8.780869484E0
4.686387521E0,-4.701796055E0,-4.489188194E0,9.945721626E0
4.688889982E0,-6.172957897E0,-5.284253120E0,1.040760422E1
4.691392443E0,-7.305744648E0,-5.860266685E0,1.040235710E1
4.693894904E0,-8.054714203E0,-5.664679527E0,9.746776581E0
4.696397365E0,-1.088571167E1,-6.202269554E0,8.298320770E0
4.698899827E0,-1.263477325E1,-6.533101082E0,6.700652122E0
4.701402319E0,-1.376597404E1,-6.298260689E0,4.882256508E0
4.703904551E0,-1.420194626E1,-6.050815582E0,3.082106113E0
4.706407241E0,-1.375360584E1,-6.136500359E0,1.775267839E0
4.708909464E0,-1.435568333E1,-5.971858025E0,4.452857375E-1
4.711412154E0,-1.554668427E1,-6.206908226E0,-5.357143283E-1
4.713914387E0,-1.596368408E1,-6.251908302E0,-7.247143388E-1
4.716417077E0,-1.685168457E1,-6.280858040E0,-4.997143149E-1
4.718919310E0,-1.785263443E1,-6.723807335E0,4.122857451E-1
4.721421770E0,-1.922063446E1,-7.123858452E0,1.825285792E0
4.723924231E0,-2.070263290E1,-7.305808067E0,3.314335823E0
4.726426693E0,-2.157473373E1,-7.276858330E0,4.232335567E0
4.728929154E0,-2.244390869E1,-7.283368111E0,4.391829967E0
4.731431616E0,-2.213442993E1,-7.002608299E0,4.267392635E0
4.733934078E0,-2.264327812E1,-6.456010818E0,3.330473423E0
4.736436555E0,-2.299674797E1,-5.844408035E0,2.380421400E0
4.738939017E0,-2.218056679E1,-5.143938065E0,1.686298132E0
4.741441479E0,-2.141808701E1,-4.244723320E0,9.720522165E-1
4.743943974E0,-2.013294792E1,-3.240458488E0,5.677229762E-1
4.746446435E0,-1.817141151E1,-2.109375000E0,5.219477415E-1
4.748948896E0,-1.584674072E1,-1.031310081E0,6.059672832E-1
4.751451333E0,-1.381332016E1,1.281452179E-2,4.860686958E-1
4.753953794E0,-1.186219215E1,8.037023544E-1,-1.885174513E-1
4.756456255E0,-1.019372940E1,1.434935570E0,-5.952363610E-1
4.758958736E0,-8.570582390E0,1.974799633E0,-8.598030806E-1
4.761461198E0,-6.873132706E0,2.133636475E0,-1.123604774E0
4.763963651E0,-5.589279175E0,2.549246788E0,-1.148184061E0
4.766466113E0,-4.636662483E0,3.016650200E0,-9.654300213E-1
4.768968575E0,-3.570498943E0,3.127275467E0,-9.026954770E-1
4.771470960E0,-2.768448830E0,3.445275307E0,-9.605954289E-1
4.773973419E0,-2.071548700E0,3.675375462E0,-9.746955037E-1
4.776475881E0,-1.506498575E0,3.776325226E0,-1.106695533E0
4.778978342E0,-1.048548698E0,3.795375347E0,-1.173595548E0
4.781480804E0,-5.694485903E-1,3.616275311E0,-1.123645544E0
4.783983265E0,-1.884486675E-1,3.240375519E0,-8.666954637E-1
4.786485727E0,2.585514188E-1,2.619375229E0,-6.686954498E-1
4.788988194E0,6.284357309E-1,1.894886494E0,-4.189171791E-1
4.791490656E0,1.087491632E0,1.203138351E0,-1.721092761E-1
4.793993118E0,1.704150677E0,4.752273560E-1,1.494453251E-1
4.796495579E0,2.413563728E0,-2.517814636E-1,5.427229404E-1
4.798998041E0,3.057188511E0,-1.056671143E0,9.274253249E-1
4.801500502E0,3.630411863E0,-1.895124435E0,1.188833237E0
4.804002963E0,4.148304939E0,-2.763756752E0,1.315638661E0
4.806505429E0,4.478641510E0,-3.713440895E0,1.341201305E0
4.809007890E0,4.874605179E0,-4.739291191E0,1.300484776E0
4.811510123E0,5.267605305E0,-5.786291122E0,1.302584767E0
4.814012582E0,5.887555122E0,-7.045390129E0,1.681484818E0
4.816515044E0,6.888655186E0,-8.739340782E0,3.312584877E0
4.819017505E0,8.910655975E0,-1.060939121E1,6.736485004E0
4.821519967E0,1.115660572E1,-1.255939198E1,1.068148518E1
4.824022428E0,1.288160610E1,-1.421134090E1,1.329253578E1
4.826524890E0,1.426760578E1,-1.535629177E1,1.585948563E1
4.829027332E0,1.476503086E1,-1.597404194E1,1.685404205E1
4.831529794E0,1.491490173E1,-1.609197235E1,1.622107315E1
4.834032256E0,1.403095150E1,-1.562997246E1,1.464502335E1
4.836534718E0,1.247396088E1,-1.465049744E1,1.258484840E1
4.839037190E0,1.064320755E1,-1.327107620E1,1.057207870E1
4.841539652E0,8.608346939E0,-1.158760929E1,8.778856277E0
4.844042114E0,6.941377163E0,-9.966283798E0,7.043601036E0
4.846544575E0,5.716097832E0,-8.377894402E0,5.423901558E0
4.849046992E0,5.082602501E0,-6.921493530E0,3.878537178E0
4.851549453E0,4.576502323E0,-5.671543121E0,2.484436989E0
4.854051914E0,4.301552296E0,-4.614493370E0,1.399487138E0
4.856554375E0,4.112552166E0,-3.702492714E0,8.024870753E-1
4.859056837E0,3.937502146E0,-2.591443062E0,4.124870300E-1
4.861559224E0,3.652502298E0,-1.475442886E0,1.334870458E-1
4.864061760E0,3.357602119E0,-4.284429550E-1,-1.246297359E-2
4.866564224E0,3.031502247E0,6.104574203E-1,-8.956298232E-2
4.869066685E0,2.466710091E0,1.567934036E0,-3.278537989E-1
4.871569147E0,2.185413837E0,2.414963245E0,-4.839685857E-1
4.874071603E0,1.891224504E0,3.195768356E0,-5.575364828E-1
4.876574065E0,1.632377863E0,3.920266151E0,-6.012696028E-1
4.879076424E0,1.304751754E0,4.595637321E0,-6.169016361E-1
4.881578884E0,1.077787519E0,5.206911087E0,-6.624735594E-1
4.884081346E0,8.575162888E-1,5.778813362E0,-6.487599015E-1
4.886583822E0,6.679638028E-1,6.255534649E0,-6.666561961E-1
4.889086284E0,5.600985289E-1,6.674450397E0,-6.803203225E-1
4.891588745E0,4.381484985E-1,7.067450523E0,-7.212703228E-1
4.894091207E0,3.281985223E-1,7.433450699E0,-7.643203139E-1
4.896593669E0,2.801985145E-1,7.733450413E0,-8.363203406E-1
4.899096131E0,2.321985066E-1,7.919450760E0,-8.432202935E-1
4.901598593E0,1.190985069E-1,8.111450195E0,-8.693203330E-1
4.904101055E0,3.614850342E-2,8.283500671E0,-1.035220385E0
4.906603516E0,-3.780150414E-2,8.461550713E0,-1.051270366E0
4.909105957E0,-4.161505699E-1,8.522085190E0,-1.476568580E0
4.911608418E0,-4.783346653E-1,8.591424942E0,-1.626710892E0
4.914110851E0,-5.165857673E-1,8.619616508E0,-1.733083725E0
4.916613313E0,-5.709454417E-1,8.551469803E0,-1.902717590E0
4.919115770E0,-6.858717799E-1,8.391776085E0,-2.146452188E0
4.921618002E0,-5.808603168E-1,7.989778519E0,-2.292494297E0
4.924120466E0,-4.445553124E-1,7.442399979E0,-2.602355957E0
4.926622928E0,-3.162364960E-1,6.878847122E0,-2.837088108E0
4.929125390E0,-3.072364926E-1,6.391797066E0,-3.110088110E0
4.931627851E0,-3.552365005E-1,5.903847694E0,-3.424038172E0
4.934130313E0,-3.451864719E-1,5.259897232E0,-3.697038174E0
4.936632774E0,-3.072364926E-1,4.571847439E0,-3.939138174E0
4.939135236E0,-1.632364839E-1,3.853797436E0,-4.154088497E0
4.941637698E0,-7.218647003E-2,3.098847389E0,-4.370088577E0
4.944140160E0,1.097635627E-1,2.318847179E0,-4.566138268E0
4.946642622E0,-3.009802103E-2,1.481416702E0,-4.943446636E0
4.949145108E0,7.381212711E-2,7.150888443E-1,-5.124001503E0
4.951647569E0,1.761472225E-1,-1.752281189E-1,-5.435603619E0
4.954150006E0,2.857722044E-1,-1.025371552E0,-5.791550159E0
4.956652467E0,3.816865683E-1,-1.853529930E0,-6.164604664E0
4.959154932E0,3.575178981E-1,-2.694053650E0,-6.505302429E0
4.961657319E0,1.446772218E-1,-3.463340759E0,-6.967622757E0
4.964159855E0,-2.595018148E-1,-4.338912010E0,-7.046617031E0
4.966662242E0,-2.194518447E-1,-5.128961563E0,-7.018567085E0
4.969164778E0,4.454815388E-2,-5.708862305E0,-7.049617290E0
4.971667165E0,1.355981827E-1,-6.206861496E0,-7.159566879E0
4.974169701E0,-6.451845169E-3,-6.635861397E0,-7.154617310E0
4.976672088E0,-3.555018306E-1,-6.881861687E0,-7.068517208E0
4.979174548E0,-5.235018134E-1,-6.848862648E0,-7.022617340E0
4.981677086E0,-7.104018927E-1,-6.664961815E0,-7.073616982E0
4.984179473E0,-1.500939608E0,-6.417531967E0,-6.786535263E0
4.986681932E0,-2.433364868E0,-6.051011086E0,-6.553167820E0
4.989184399E0,-3.149113655E0,-5.502129555E0,-6.825376034E0
4.991686860E0,-3.459271669E0,-5.025097847E0,-7.112510204E0
4.994189322E0,-3.240542889E0,-4.676679611E0,-6.969501019E0
4.996691760E0,-2.873600245E0,-4.250123024E0,-6.070559025E0
4.999194217E0,-2.618043423E0,-3.649385452E0,-5.093038082E0
5.001696679E0,-2.375060081E0,-2.872118950E0,-4.377434254E0
5.004199141E0,-2.071018934E0,-2.033638954E0,-3.732545853E0
5.006701603E0,-1.891018867E0,-1.324588776E0,-3.390545845E0
5.009204065E0,-1.726018906E0,-7.335891724E-1,-3.028595924E0
5.011706527E0,-1.595968843E0,-1.436386108E-1,-2.728595734E0
5.014208988E0,-1.486018777E0,3.234605789E-1,-2.549645901E0
5.016711449E0,-1.406968832E0,8.493614197E-1,-2.422595739E0
5.019213910E0,-1.361968756E0,1.340460777E0,-2.331545830E0
5.021716371E0,-1.280968785E0,1.738410950E0,-2.300645828E0
5.024218827E0,-1.332017422E0,2.057033539E0,-2.190747499E0
5.026721289E0,-1.327457666E0,2.387659073E0,-2.134018183E0
5.029223522E0,-1.363530636E0,2.645254612E0,-2.089359045E0
5.031726004E0,-1.355316401E0,2.859674454E0,-2.010877132E0
5.034228466E0,-1.416861057E0,3.010982513E0,-1.893020988E0
5.036730927E0,-1.530819297E0,3.191144466E0,-1.818992138E0
5.039233376E0,-1.651587605E0,3.292265415E0,-1.751389384E0
5.041735837E0,-1.789294362E0,3.350317001E0,-1.745012879E0
5.044238293E0,-1.900899768E0,3.426133156E0,-1.760684371E0
5.046740754E0,-2.001849651E0,3.393133163E0,-1.758584380E0
5.049243216E0,-2.027799845E0,3.321133137E0,-1.746584296E0
5.051745678E0,-2.051799774E0,3.160183430E0,-1.738634348E0
5.054248140E0,-2.099799633E0,2.971183300E0,-1.779584408E0
5.056750602E0,-2.135799885E0,2.863183498E0,-1.817684412E0
5.059253064E0,-2.161899805E0,2.638183117E0,-1.875584364E0
5.061755526E0,-2.142849684E0,2.411083221E0,-1.901684403E0
5.064257987E0,-2.237771034E0,2.161986828E0,-1.850469708E0
5.066760434E0,-2.311721087E0,1.891087055E0,-1.905519724E0
5.069262895E0,-2.412492990E0,1.706963062E0,-1.825741291E0
5.071765281E0,-2.459190369E0,1.473628998E0,-1.840054989E0
5.074267741E0,-2.524140358E0,1.270678520E0,-1.848155022E0
5.076770187E0,-2.660037756E0,9.946088791E-1,-1.741510391E0
5.079272649E0,-2.697474480E0,8.005247116E-1,-1.665757418E0
5.081775106E0,-2.705209255E0,5.926656723E-1,-1.615477443E0
5.084277645E0,-2.770642757E0,4.093017578E-1,-1.553391576E0
5.086780031E0,-2.853535414E0,2.228307724E-1,-1.472645044E0
5.089282458E0,-2.718925476E0,4.437446594E-3,-1.332342148E0
5.091784919E0,-2.841925621E0,-2.544631958E-1,-1.308342099E0
5.094287381E0,-3.021025658E0,-3.504629135E-1,-1.272342086E0
5.096789842E0,-3.141025543E0,-5.394630432E-1,-1.253292084E0
5.099292304E0,-3.114925623E0,-6.924629211E-1,-1.143342137E0
5.101794766E0,-3.090925694E0,-8.655633926E-1,-1.064292073E0
5.104297228E0,-3.130975723E0,-1.001462936E0,-9.562921524E-1
5.106799690E0,-3.165025711E0,-1.133462906E0,-9.082920551E-1
5.109302152E0,-3.334069014E0,-1.268822670E0,-6.206430793E-1
5.111804614E0,-3.399648190E0,-1.273752213E0,-5.510885119E-1
5.114306844E0,-3.390647888E0,-1.235802650E0,-5.371385217E-1
5.116809535E0,-3.390557289E0,-1.276309967E0,-4.732789993E-1
5.119311729E0,-3.338654041E0,-1.385228157E0,-3.831154704E-1
5.121814419E0,-3.330649853E0,-1.441113472E0,-2.948018909E-1
5.124316897E0,-3.355761528E0,-1.501208305E0,-2.611355186E-1
5.126819359E0,-3.281226397E0,-1.495851517E0,-2.165020108E-1
5.129321821E0,-3.273276329E0,-1.497801781E0,-9.845203161E-2
5.131824282E0,-3.252276421E0,-1.445901871E0,-2.255201340E-2
5.134326744E0,-3.309276581E0,-1.370902061E0,3.744798899E-2
5.136828974E0,-3.326226473E0,-1.296801567E0,1.265479922E-1
5.139331434E0,-3.259176493E0,-1.277901649E0,1.595479846E-1
5.141833895E0,-3.180276394E0,-1.282852173E0,9.954798222E-2
5.144336357E0,-3.168276310E0,-1.210851669E0,-2.255201340E-2
5.146838819E0,-3.242127657E0,-1.269696236E0,-2.137287855E-1
5.149341265E0,-3.158481598E0,-1.340373039E0,-1.267676592E0
5.151843727E0,-3.093583584E0,-1.371764183E0,-1.991926432E0
5.154346178E0,-3.122560501E0,-1.430692673E0,-2.500419617E0
5.156848640E0,-3.176369667E0,-1.485349655E0,-2.737144947E0
5.159351117E0,-3.303731918E0,-1.492750168E0,-2.626793861E0
5.161853579E0,-3.510397911E0,-1.504646301E0,-2.153122425E0
5.164356074E0,-3.681475163E0,-1.532826424E0,-1.350832224E0
5.166858536E0,-3.690495968E0,-1.516967773E0,-5.571380854E-1
5.169360997E0,-3.796545982E0,-1.530918121E0,2.768619657E-1
5.171863458E0,-3.908446312E0,-1.528967857E0,1.059862018E0
5.174365919E0,-3.879496098E0,-1.518918037E0,1.721961975E0
5.176868380E0,-3.817546368E0,-1.504967690E0,2.375962019E0
