"Time (s)","Gyroscope x (rad/s)","Gyroscope y (rad/s)","Gyroscope z (rad/s)"
3.203747300E-2,9.143749624E-2,-1.384624988E-1,-6.586249918E-2
3.453754000E-2,9.679999948E-2,-1.660999954E-1,-6.806249917E-2
3.704000200E-2,9.996250272E-2,-1.863124967E-1,-6.063750014E-2
3.954269400E-2,1.064250022E-1,-2.065249979E-1,-5.843750015E-2
4.204523200E-2,1.095874980E-1,-2.235749960E-1,-5.733750015E-2
4.454791400E-2,1.116499975E-1,-2.352624983E-1,-4.991250113E-2
4.705037700E-2,1.159124970E-1,-2.417249978E-1,-4.564999789E-2
4.955291400E-2,1.223749965E-1,-2.459875047E-1,-4.138749838E-2
5.205560600E-2,1.212750003E-1,-2.480500042E-1,-3.616249934E-2
5.455814500E-2,1.201749966E-1,-2.512125075E-1,-3.286249936E-2
5.706060600E-2,1.190750003E-1,-2.480500042E-1,-3.189999983E-2
5.956329600E-2,1.159124970E-1,-2.459875047E-1,-3.079999983E-2
6.206583700E-2,1.127500013E-1,-2.363625020E-1,-3.506249934E-2
6.456852100E-2,1.106875017E-1,-2.246749997E-1,-3.616249934E-2
6.707106200E-2,1.031249985E-1,-2.107875049E-1,-3.712499887E-2
6.957352300E-2,9.569999576E-2,-2.011625022E-1,-4.042499885E-2
7.207621400E-2,9.253749996E-2,-1.916749924E-1,-4.468749836E-2
7.457877700E-2,7.975000143E-2,-1.820500046E-1,-4.895000160E-2
7.708146700E-2,6.916250288E-2,-1.746249944E-1,-5.417500064E-2
7.958393100E-2,6.379999965E-2,-1.660999954E-1,-5.527500063E-2
8.208646700E-2,5.211250111E-2,-1.564749926E-1,-5.637500063E-2
8.458914400E-2,4.042499885E-2,-1.501500010E-1,-6.063750014E-2
8.709168400E-2,3.616249934E-2,-1.427250057E-1,-6.270000339E-2
8.959437400E-2,2.447500080E-2,-1.384624988E-1,-6.696250290E-2
9.209683800E-2,1.801249944E-2,-1.319999993E-1,-7.122500241E-2
9.459960900E-2,1.374999993E-2,-1.256749928E-1,-7.658749819E-2
9.710207300E-2,3.162499983E-3,-1.171500012E-1,-7.975000143E-2
9.960461100E-2,-1.099999994E-3,-1.097249985E-1,-8.401250094E-2
1.021073020E-1,-7.562499959E-3,-1.011999995E-1,-9.253749996E-2
1.046097640E-1,-1.498750038E-2,-9.803749621E-2,-1.021625027E-1
1.071123010E-1,-2.131249942E-2,-9.157499671E-2,-1.095874980E-1
1.096149930E-1,-2.873750031E-2,-8.415000141E-2,-1.138499975E-1
1.121175330E-1,-3.629999980E-2,-8.098749816E-2,-1.190750003E-1
1.146202430E-1,-4.152499884E-2,-8.304999769E-2,-1.190750003E-1
1.171227060E-1,-4.468749836E-2,-8.208750188E-2,-1.233374998E-1
1.196252430E-1,-4.895000160E-2,-8.415000141E-2,-1.223749965E-1
1.221279350E-1,-5.004999787E-2,-9.157499671E-2,-1.201749966E-1
1.246305030E-1,-5.115000159E-2,-9.473749995E-2,-1.181124970E-1
1.271331940E-1,-5.004999787E-2,-9.583749622E-2,-1.212750003E-1
1.296356570E-1,-4.895000160E-2,-9.377499670E-2,-1.223749965E-1
1.321381940E-1,-4.688749835E-2,-9.061250091E-2,-1.223749965E-1
1.346408760E-1,-4.688749835E-2,-8.635000139E-2,-1.244374961E-1
1.371434170E-1,-4.468749836E-2,-7.356250286E-2,-1.233374998E-1
1.396458780E-1,-4.042499885E-2,-6.599999964E-2,-1.266375035E-1
1.421485680E-1,-3.629999980E-2,-5.541250110E-2,-1.244374961E-1
1.446511600E-1,-3.093750030E-2,-4.372499883E-2,-1.266375035E-1
1.471538500E-1,-2.351249941E-2,-3.629999980E-2,-1.244374961E-1
1.496563140E-1,-1.814999990E-2,-2.983750030E-2,-1.266375035E-1
1.521588500E-1,-1.388750039E-2,-2.557500079E-2,-1.266375035E-1
1.546615620E-1,-3.299999982E-3,-2.034999989E-2,-1.318625063E-1
1.571641020E-1,5.224999972E-3,-2.034999989E-2,-1.329624951E-1
1.596665640E-1,1.278750040E-2,-1.924999990E-2,-1.308999956E-1
1.621692680E-1,2.337500080E-2,-1.814999990E-2,-1.308999956E-1
1.646718080E-1,3.079999983E-2,-2.131249942E-2,-1.329624951E-1
1.671744990E-1,4.248749837E-2,-3.093750030E-2,-1.308999956E-1
1.696770390E-1,4.991250113E-2,-4.262499884E-2,-1.318625063E-1
1.721797290E-1,5.953750014E-2,-5.761250108E-2,-1.308999956E-1
1.746822700E-1,7.438749820E-2,-7.356250286E-2,-1.308999956E-1
1.771847650E-1,8.291249722E-2,-9.157499671E-2,-1.318625063E-1
1.796874560E-1,8.717499673E-2,-1.075249985E-1,-1.350249946E-1
1.821899960E-1,8.937499672E-2,-1.225124970E-1,-1.372250021E-1
1.846926870E-1,9.459999949E-2,-1.362625062E-1,-1.446499974E-1
1.871951500E-1,9.569999576E-2,-1.479499936E-1,-1.457500011E-1
1.896977060E-1,1.010624990E-1,-1.586750001E-1,-1.425874978E-1
1.922003980E-1,1.010624990E-1,-1.703625023E-1,-1.478125006E-1
1.947029380E-1,9.886249900E-2,-1.799875051E-1,-1.500124931E-1
1.972054000E-1,9.569999576E-2,-1.831499934E-1,-1.500124931E-1
1.997080560E-1,9.253749996E-2,-1.852124929E-1,-1.468500048E-1
2.022105970E-1,8.937499672E-2,-1.874125004E-1,-1.468500048E-1
2.047132870E-1,8.511249721E-2,-1.874125004E-1,-1.478125006E-1
2.072158270E-1,7.864999771E-2,-1.842499971E-1,-1.446499974E-1
2.097182840E-1,7.548750192E-2,-1.766874939E-1,-1.403875053E-1
2.122209740E-1,6.916250288E-2,-1.735250056E-1,-1.383250058E-1
2.147235150E-1,6.379999965E-2,-1.724250019E-1,-1.329624951E-1
2.172262050E-1,5.843750015E-2,-1.724250019E-1,-1.287000030E-1
2.197287030E-1,4.895000160E-2,-1.746249944E-1,-1.244374961E-1
2.222314700E-1,4.358749837E-2,-1.735250056E-1,-1.244374961E-1
2.247339330E-1,4.138749838E-2,-1.766874939E-1,-1.212750003E-1
2.272364720E-1,3.506249934E-2,-1.820500046E-1,-1.212750003E-1
2.297389280E-1,3.189999983E-2,-1.916749924E-1,-1.212750003E-1
2.322416960E-1,2.447500080E-2,-2.001999915E-1,-1.190750003E-1
2.347441590E-1,1.911249943E-2,-2.065249979E-1,-1.190750003E-1
2.372468490E-1,1.168750040E-2,-2.182125002E-1,-1.190750003E-1
2.397493800E-1,6.324999966E-3,-2.204124928E-1,-1.181124970E-1
2.422520700E-1,9.624999948E-4,-2.213750035E-1,-1.159124970E-1
2.447546110E-1,-3.299999982E-3,-2.193125039E-1,-1.064250022E-1
2.472570720E-1,-6.462499965E-3,-2.161500007E-1,-1.031249985E-1
2.497597830E-1,-4.262499977E-3,-2.150499970E-1,-9.996250272E-2
2.522623230E-1,-5.362499971E-3,-2.150499970E-1,-9.459999949E-2
2.547650130E-1,-4.262499977E-3,-2.118874937E-1,-9.363749623E-2
2.572674770E-1,-1.099999994E-3,-2.076250017E-1,-9.143749624E-2
2.597700270E-1,-0.000000000E0,-2.022625059E-1,-9.790000319E-2
2.622727200E-1,2.062499989E-3,-1.979999989E-1,-1.021625027E-1
2.647752600E-1,9.624999948E-4,-1.905750036E-1,-1.084875017E-1
2.672779500E-1,-2.199999988E-3,-1.809500009E-1,-1.138499975E-1
2.697804140E-1,-4.262499977E-3,-1.735250056E-1,-1.159124970E-1
2.722829510E-1,-6.462499965E-3,-1.660999954E-1,-1.190750003E-1
2.747856430E-1,-1.278750040E-2,-1.564749926E-1,-1.223749965E-1
2.772881830E-1,-2.021249942E-2,-1.555124968E-1,-1.190750003E-1
2.797906450E-1,-2.021249942E-2,-1.586750001E-1,-1.212750003E-1
2.822933250E-1,-2.667500079E-2,-1.618375033E-1,-1.266375035E-1
2.847958660E-1,-2.777500078E-2,-1.735250056E-1,-1.275999993E-1
2.872985560E-1,-3.203750029E-2,-1.863124967E-1,-1.318625063E-1
2.898010960E-1,-3.836249933E-2,-2.022625059E-1,-1.372250021E-1
2.923035440E-1,-4.468749836E-2,-2.172500044E-1,-1.414874941E-1
2.948062340E-1,-5.431250110E-2,-2.374625057E-1,-1.457500011E-1
2.973087750E-1,-6.077500060E-2,-2.576749921E-1,-1.468500048E-1
2.998114650E-1,-6.916250288E-2,-2.714250088E-1,-1.478125006E-1
3.023140050E-1,-7.562500238E-2,-2.788499892E-1,-1.446499974E-1
3.048165050E-1,-8.621250093E-2,-2.884750068E-1,-1.414874941E-1
3.073191950E-1,-9.693749994E-2,-2.895750105E-1,-1.361249983E-1
3.098217360E-1,-1.043625027E-1,-2.821500003E-1,-1.297999918E-1
3.123244260E-1,-1.106875017E-1,-2.756874859E-1,-1.244374961E-1
3.148269190E-1,-1.192125008E-1,-2.628999949E-1,-1.159124970E-1
3.173293800E-1,-1.245749965E-1,-2.501125038E-1,-1.095874980E-1
3.198320700E-1,-1.319999993E-1,-2.341624945E-1,-1.042250022E-1
3.223346110E-1,-1.373624951E-1,-2.118874937E-1,-9.679999948E-2
3.248373010E-1,-1.458874941E-1,-1.916749924E-1,-9.363749623E-2
3.273397700E-1,-1.544124931E-1,-1.714625061E-1,-9.143749624E-2
3.298423060E-1,-1.607374996E-1,-1.544124931E-1,-9.033749998E-2
3.323449990E-1,-1.670625061E-1,-1.395625025E-1,-8.607500046E-2
3.348475390E-1,-1.713249981E-1,-1.214125007E-1,-7.768750191E-2
3.373500060E-1,-1.831499934E-1,-1.075249985E-1,-6.586249918E-2
3.398526960E-1,-1.894749999E-1,-9.583749622E-2,-6.270000339E-2
3.423552360E-1,-1.991000026E-1,-8.304999769E-2,-5.321250111E-2
3.448579270E-1,-2.085874975E-1,-7.136250287E-2,-4.675000161E-2
3.473604720E-1,-2.161500007E-1,-6.283749640E-2,-4.248749837E-2
3.498629340E-1,-2.213750035E-1,-5.115000159E-2,-3.189999983E-2
3.523657010E-1,-2.235749960E-1,-4.482499883E-2,-2.763750032E-2
3.548681640E-1,-2.278375030E-1,-3.093750030E-2,-2.447500080E-2
3.573708310E-1,-2.341624945E-1,-1.498750038E-2,-1.691249944E-2
3.598732940E-1,-2.406249940E-1,9.624999948E-4,-1.058750041E-2
3.623758310E-1,-2.437874973E-1,2.117500082E-2,-6.324999966E-3
3.648785230E-1,-2.469500005E-1,3.712499887E-2,1.099999994E-3
3.673810730E-1,-2.490125000E-1,5.637500063E-2,1.182499994E-2
3.698837630E-1,-2.543750107E-1,7.864999771E-2,2.447500080E-2
3.723862260E-1,-2.575374842E-1,1.031249985E-1,3.203750029E-2
3.748889940E-1,-2.586374879E-1,1.244374961E-1,4.688749835E-2
3.773914770E-1,-2.608374953E-1,1.457500011E-1,5.967500061E-2
3.798940160E-1,-2.671625018E-1,1.691250056E-1,7.672499865E-2
3.823967060E-1,-2.671625018E-1,1.893374920E-1,8.731249720E-2
3.848992460E-1,-2.671625018E-1,2.169750035E-1,1.021625027E-1
3.874016890E-1,-2.725250125E-1,2.393874973E-1,1.203124970E-1
3.899043790E-1,-2.692250013E-1,2.690874934E-1,1.362625062E-1
3.924069200E-1,-2.639999986E-1,2.968625128E-1,1.533125043E-1
3.949096100E-1,-2.575374842E-1,3.222999871E-1,1.724250019E-1
3.974120930E-1,-2.490125000E-1,3.467749953E-1,1.894749999E-1
3.999146290E-1,-2.384250015E-1,3.628624976E-1,2.043250054E-1
4.024173210E-1,-2.267374992E-1,3.734500110E-1,2.224749923E-1
4.049198620E-1,-2.139499933E-1,3.808749914E-1,2.373249978E-1
4.074223520E-1,-1.991000026E-1,3.851374984E-1,2.543750107E-1
4.099250430E-1,-1.831499934E-1,3.873375058E-1,2.725250125E-1
4.124275830E-1,-1.681624949E-1,3.873375058E-1,2.873750031E-1
4.149302740E-1,-1.586750001E-1,3.883000016E-1,2.980999947E-1
4.174327900E-1,-1.479499936E-1,3.999874890E-1,3.140499890E-1
4.199352520E-1,-1.468500048E-1,4.277625084E-1,3.268375099E-1
4.224379420E-1,-1.511124969E-1,4.776749909E-1,3.385249972E-1
4.249404820E-1,-1.618375033E-1,5.330874920E-1,3.459500074E-1
4.274431880E-1,-1.766874939E-1,6.054124832E-1,3.522749841E-1
4.299456510E-1,-2.022625059E-1,7.055125237E-1,3.576374948E-1
4.324484180E-1,-2.287999988E-1,8.151000142E-1,3.630000055E-1
4.349508820E-1,-2.458499968E-1,9.044749737E-1,3.619000018E-1
4.374534530E-1,-2.660624981E-1,9.619500041E-1,3.650625050E-1
4.399559150E-1,-2.820124924E-1,9.960500002E-1,3.639625013E-1
4.424586820E-1,-2.927374840E-1,1.018324971E0,3.607999980E-1
4.449611460E-1,-3.022249937E-1,1.029049993E0,3.607999980E-1
4.474638360E-1,-3.150124848E-1,1.033312440E0,3.587374985E-1
4.499663770E-1,-3.235374987E-1,1.026849985E0,3.630000055E-1
4.524690670E-1,-3.289000094E-1,1.018324971E0,3.682250082E-1
4.549716070E-1,-3.331624866E-1,1.011999965E0,3.757874966E-1
4.574740690E-1,-3.374249935E-1,1.006637454E0,3.735874891E-1
4.599767830E-1,-3.405874968E-1,1.010900021E0,3.715249896E-1
4.624793240E-1,-3.437500000E-1,1.011999965E0,3.672625124E-1
4.649820140E-1,-3.502124846E-1,1.013100028E0,3.565374911E-1
4.674844780E-1,-3.522749841E-1,1.007737517E0,3.502124846E-1
4.699870190E-1,-3.544749916E-1,1.000312448E0,3.416875005E-1
4.724897110E-1,-3.544749916E-1,9.864249825E-1,3.394874930E-1
4.749922520E-1,-3.554374874E-1,9.747374654E-1,3.363249898E-1
4.774947130E-1,-3.596999943E-1,9.682750106E-1,3.289000094E-1
4.799974040E-1,-3.630000055E-1,9.704750180E-1,3.235374987E-1
4.824999580E-1,-3.619000018E-1,9.895874858E-1,3.140499890E-1
4.850026480E-1,-3.607999980E-1,1.024787545E0,3.044250011E-1
4.875051890E-1,-3.576374948E-1,1.070437551E0,2.938374877E-1
4.900076500E-1,-3.565374911E-1,1.118425012E0,2.756874859E-1
4.925103560E-1,-3.554374874E-1,1.165174961E0,2.617999911E-1
4.950128960E-1,-3.554374874E-1,1.209862471E0,2.480500042E-1
4.975155870E-1,-3.522749841E-1,1.242862463E0,2.426874936E-1
5.000181270E-1,-3.522749841E-1,1.281224966E0,2.426874936E-1
5.025205890E-1,-3.554374874E-1,1.318487525E0,2.523125112E-1
5.050232790E-1,-3.565374911E-1,1.357812524E0,2.693625093E-1
5.075258190E-1,-3.565374911E-1,1.393975019E0,2.895750105E-1
5.100285100E-1,-3.576374948E-1,1.435500026E0,3.097875118E-1
5.125309680E-1,-3.639625013E-1,1.480187535E0,3.320625126E-1
5.150335050E-1,-3.672625124E-1,1.522812486E0,3.522749841E-1
5.175361970E-1,-3.672625124E-1,1.558974981E0,3.746874928E-1
5.200386600E-1,-3.735874891E-1,1.588812470E0,3.948999941E-1
5.225414420E-1,-3.821125031E-1,1.612187505E0,4.108499885E-1
5.250439050E-1,-3.895374835E-1,1.627037525E0,4.310624897E-1
5.275464440E-1,-3.948999941E-1,1.635562539E0,4.534749985E-1
5.300491340E-1,-3.991625011E-1,1.634600043E0,4.736874998E-1
5.325516900E-1,-4.023250043E-1,1.621812463E0,4.896374941E-1
5.350543800E-1,-3.991625011E-1,1.590875030E0,5.098500252E-1
5.375568430E-1,-3.926999867E-1,1.537662506E0,5.257999897E-1
5.400593800E-1,-3.810124993E-1,1.466437459E0,5.332249999E-1
5.425620610E-1,-3.693250120E-1,1.388749957E0,5.406500101E-1
5.450646020E-1,-3.522749841E-1,1.299374938E0,5.449125171E-1
5.475670630E-1,-3.309625089E-1,1.196112514E0,5.417500138E-1
5.500697530E-1,-3.097875118E-1,1.091750026E0,5.385875106E-1
5.525722990E-1,-2.853125036E-1,9.981124997E-1,5.311625004E-1
5.550749890E-1,-2.608374953E-1,9.140999913E-1,5.226374865E-1
5.575774530E-1,-2.363625020E-1,8.342124820E-1,5.087500215E-1
5.600799890E-1,-2.139499933E-1,7.757750154E-1,4.948624969E-1
5.625826770E-1,-1.991000026E-1,7.385125160E-1,4.822124839E-1
5.650852170E-1,-1.863124967E-1,7.171999812E-1,4.672249854E-1
5.675876790E-1,-1.746249944E-1,7.118374705E-1,4.566375017E-1
5.700903690E-1,-1.681624949E-1,7.235249877E-1,4.449499846E-1
5.725929040E-1,-1.639000028E-1,7.459374666E-1,4.342249930E-1
5.750955950E-1,-1.681624949E-1,7.757750154E-1,4.268000126E-1
5.775981350E-1,-1.724250019E-1,8.162000179E-1,4.182749987E-1
5.801008250E-1,-1.777874976E-1,8.586875200E-1,4.162124991E-1
5.826033230E-1,-1.894749999E-1,9.044749737E-1,4.129124880E-1
5.851058590E-1,-2.054249942E-1,9.513624907E-1,4.140124917E-1
5.876085520E-1,-2.202749997E-1,1.001274943E0,4.204750061E-1
5.901110920E-1,-2.341624945E-1,1.047062516E0,4.247374833E-1
5.926135540E-1,-2.447499931E-1,1.093950033E0,4.310624897E-1
5.951162440E-1,-2.586374879E-1,1.138637543E0,4.427500069E-1
5.976187850E-1,-2.734875083E-1,1.185387492E0,4.492124915E-1
6.001214750E-1,-2.831124961E-1,1.223749995E0,4.544374943E-1
6.026240000E-1,-2.905375063E-1,1.252487540E0,4.640625119E-1
6.051264620E-1,-2.969999909E-1,1.279024959E0,4.703874886E-1
6.076291520E-1,-2.958999872E-1,1.295112491E0,4.757499993E-1
6.101316930E-1,-2.969999909E-1,1.306800008E0,4.789125025E-1
6.126344030E-1,-2.969999909E-1,1.311062455E0,4.831750095E-1
6.151368670E-1,-2.958999872E-1,1.301437497E0,4.811125100E-1
6.176394030E-1,-2.958999872E-1,1.289749980E0,4.768500030E-1
6.201420950E-1,-2.884750068E-1,1.273800015E0,4.757499993E-1
6.226446360E-1,-2.842124999E-1,1.255650043E0,4.672249854E-1
6.251473110E-1,-2.788499892E-1,1.237637520E0,4.577375054E-1
6.276497750E-1,-2.714250088E-1,1.219487548E0,4.512749910E-1
6.301523110E-1,-2.608374953E-1,1.196112514E0,4.406875074E-1
6.326550030E-1,-2.532750070E-1,1.183325052E0,4.331249893E-1
6.351575390E-1,-2.447499931E-1,1.172737479E0,4.278999865E-1
6.376600000E-1,-2.352624983E-1,1.163112521E0,4.214375019E-1
6.401626910E-1,-2.287999988E-1,1.158849955E0,4.119499922E-1
6.426652310E-1,-2.160124928E-1,1.155687451E0,4.034250081E-1
6.451678740E-1,-2.118874937E-1,1.152387500E0,3.959999979E-1
6.476704140E-1,-2.096875012E-1,1.150324941E0,3.895374835E-1
6.501728760E-1,-2.033624947E-1,1.146062493E0,3.821125031E-1
6.526755660E-1,-2.043250054E-1,1.140699983E0,3.789499998E-1
6.551780970E-1,-2.096875012E-1,1.137537479E0,3.778499961E-1
6.576807880E-1,-2.054249942E-1,1.131212473E0,3.746874928E-1
6.601833280E-1,-2.128500044E-1,1.122687459E0,3.757874966E-1
6.626860180E-1,-2.224749923E-1,1.114162445E0,3.757874966E-1
6.651884960E-1,-2.299000025E-1,1.106737494E0,3.778499961E-1
6.676910320E-1,-2.395250052E-1,1.093950033E0,3.810124993E-1
6.701937250E-1,-2.480500042E-1,1.073737502E0,3.778499961E-1
6.726962650E-1,-2.575374842E-1,1.043900013E0,3.704249859E-1
6.751987080E-1,-2.725250125E-1,1.002375007E0,3.619000018E-1
6.777013980E-1,-2.831124961E-1,9.470999837E-1,3.448500037E-1
6.802039390E-1,-2.947999835E-1,8.799999952E-1,3.257375062E-1
6.827066290E-1,-3.097875118E-1,8.023124933E-1,3.012624979E-1
6.852090870E-1,-3.161124885E-1,7.149999738E-1,2.651000023E-1
6.877116240E-1,-3.246375024E-1,6.150375009E-1,2.235749960E-1
6.902143160E-1,-3.405874968E-1,4.989874959E-1,1.724250019E-1
6.927168570E-1,-3.511750102E-1,3.680875003E-1,1.128875017E-1
6.952195420E-1,-3.607999980E-1,2.201374918E-1,4.262499884E-2
6.977220060E-1,-3.693250120E-1,5.953750014E-2,-3.712499887E-2
7.002245420E-1,-3.821125031E-1,-1.117874980E-1,-1.244374961E-1
7.027272340E-1,-3.948999941E-1,-2.864125073E-1,-2.095499933E-1
7.052297750E-1,-4.097499847E-1,-4.512749910E-1,-2.979624867E-1
7.077322360E-1,-4.310624897E-1,-6.023874879E-1,-3.830749989E-1
7.102349270E-1,-4.523749948E-1,-7.195374966E-1,-4.628250003E-1
7.127374670E-1,-4.789125025E-1,-7.950249910E-1,-5.362499952E-1
7.152401570E-1,-5.087500215E-1,-8.237624764E-1,-6.087124944E-1
7.177426210E-1,-5.385875106E-1,-7.981874943E-1,-6.767749786E-1
7.202451570E-1,-5.747500062E-1,-7.238000035E-1,-7.353500128E-1
7.227478500E-1,-6.151750088E-1,-6.194375157E-1,-7.917249799E-1
7.252503950E-1,-6.641250253E-1,-5.013250113E-1,-8.438374996E-1
7.277528570E-1,-7.151374817E-1,-3.735874891E-1,-8.874250054E-1
7.302555470E-1,-7.726125121E-1,-2.417249978E-1,-9.172624946E-1
7.327580880E-1,-8.300874829E-1,-1.139874980E-1,-9.396749735E-1
7.352607590E-1,-8.897625208E-1,9.624999948E-4,-9.459999800E-1
7.377632990E-1,-9.450374842E-1,1.179749966E-1,-9.470999837E-1
7.402657610E-1,-9.971500039E-1,2.404875010E-1,-9.417374730E-1
7.427685280E-1,-1.019562483E0,2.585000098E-1,-9.109374881E-1
7.452709770E-1,-9.897249937E-1,9.033749998E-2,-8.438374996E-1
7.477736670E-1,-8.897625208E-1,-2.491499931E-1,-7.236624956E-1
7.502761300E-1,-7.460749745E-1,-5.917999744E-1,-5.874000192E-1
7.527788980E-1,-6.226000190E-1,-7.247624993E-1,-4.809750021E-1
7.552813420E-1,-5.491750240E-1,-6.982250214E-1,-4.010874927E-1
7.577838810E-1,-5.098500252E-1,-6.258999705E-1,-3.469125032E-1
7.602865710E-1,-4.874374866E-1,-5.502749681E-1,-3.053874969E-1
7.627891120E-1,-4.800125062E-1,-4.747875035E-1,-2.712875009E-1
7.652915540E-1,-4.757499993E-1,-3.821125031E-1,-2.457125038E-1
7.677942440E-1,-4.820750058E-1,-2.767874897E-1,-2.223374993E-1
7.702967850E-1,-4.811125100E-1,-1.885125041E-1,-2.149125040E-1
7.727994750E-1,-4.725874960E-1,-1.319999993E-1,-2.149125040E-1
7.753019390E-1,-4.575999975E-1,-9.583749622E-2,-2.202749997E-1
7.778044750E-1,-4.406875074E-1,-8.524999768E-2,-2.297624946E-1
7.803071670E-1,-4.236375093E-1,-9.267500043E-2,-2.340250015E-1
7.828097080E-1,-3.991625011E-1,-1.117874980E-1,-2.340250015E-1
7.853121550E-1,-3.735874891E-1,-1.458874941E-1,-2.351250052E-1
7.878148460E-1,-3.522749841E-1,-1.820500046E-1,-2.351250052E-1
7.903173860E-1,-3.267000020E-1,-2.278375030E-1,-2.373249978E-1
7.928200770E-1,-2.979624867E-1,-2.821500003E-1,-2.393874973E-1
7.953225980E-1,-2.682625055E-1,-3.405874968E-1,-2.414499968E-1
7.978250600E-1,-2.373249978E-1,-4.045250118E-1,-2.414499968E-1
8.003277500E-1,-2.065249979E-1,-4.640625119E-1,-2.457125038E-1
8.028302900E-1,-1.820500046E-1,-5.066875219E-1,-2.436500043E-1
8.053330330E-1,-1.629374921E-1,-5.332249999E-1,-2.404875010E-1
8.078354960E-1,-1.501500010E-1,-5.279999971E-1,-2.330625057E-1
8.103382630E-1,-1.490499973E-1,-5.087500215E-1,-2.265999913E-1
8.128407270E-1,-1.511124969E-1,-4.800125062E-1,-2.169750035E-1
8.153432460E-1,-1.639000028E-1,-4.438500106E-1,-2.169750035E-1
8.178457080E-1,-1.755875051E-1,-4.065875113E-1,-2.160124928E-1
8.203484750E-1,-1.926375031E-1,-3.810124993E-1,-2.160124928E-1
8.228511680E-1,-2.202749997E-1,-3.704249859E-1,-2.169750035E-1
8.253536260E-1,-2.447499931E-1,-3.693250120E-1,-2.202749997E-1
8.278561650E-1,-2.608374953E-1,-3.619000018E-1,-2.202749997E-1
8.303588550E-1,-2.543750107E-1,-3.427875042E-1,-2.191749960E-1
8.328613950E-1,-2.447499931E-1,-3.448500037E-1,-2.149125040E-1
8.353638860E-1,-2.406249940E-1,-3.810124993E-1,-2.000624985E-1
8.378665760E-1,-2.447499931E-1,-4.236375093E-1,-1.841125041E-1
8.403691170E-1,-2.447499931E-1,-4.587000012E-1,-1.733874977E-1
8.428718070E-1,-2.426874936E-1,-4.916999936E-1,-1.596374959E-1
8.453742800E-1,-2.437874973E-1,-5.204374790E-1,-1.468500048E-1
8.478768160E-1,-2.565749884E-1,-5.363875031E-1,-1.329624951E-1
8.503795080E-1,-2.725250125E-1,-5.428500175E-1,-1.190750003E-1
8.528820490E-1,-2.927374840E-1,-5.460125208E-1,-1.021625027E-1
8.553845050E-1,-3.183124959E-1,-5.482124686E-1,-8.401250094E-2
8.578871960E-1,-3.502124846E-1,-5.524749756E-1,-6.586249918E-2
8.603897360E-1,-3.874749839E-1,-5.556374788E-1,-4.675000161E-2
8.628924260E-1,-4.268000126E-1,-5.608624816E-1,-3.079999983E-2
8.653949010E-1,-4.651624858E-1,-5.726875067E-1,-1.484999992E-2
8.678974370E-1,-5.022875071E-1,-5.960624814E-1,-5.224999972E-3
8.704001300E-1,-5.395500064E-1,-6.290624738E-1,3.299999982E-3
8.729026700E-1,-5.779125094E-1,-6.609625220E-1,-6.324999966E-3
8.754053700E-1,-6.120125055E-1,-6.811749935E-1,-4.991250113E-2
8.779079100E-1,-6.535375118E-1,-7.088124752E-1,-8.291249722E-2
8.804103720E-1,-6.971250176E-1,-7.312250137E-1,-1.201749966E-1
8.829130620E-1,-7.460749745E-1,-7.534999847E-1,-1.637624949E-1
8.854156070E-1,-8.024500012E-1,-7.727500200E-1,-2.138125002E-1
8.879180690E-1,-8.641874790E-1,-7.886999846E-1,-2.755500078E-1
8.904208360E-1,-9.301875234E-1,-8.014875054E-1,-3.511750102E-1
8.929233000E-1,-1.001412511E0,-8.003875017E-1,-4.149749875E-1
8.954259900E-1,-1.073874950E0,-7.950249910E-1,-4.724499881E-1
8.979284830E-1,-1.141937494E0,-7.864999771E-1,-5.171374679E-1
9.004312500E-1,-1.202574968E0,-7.833374739E-1,-5.522000194E-1
9.029337130E-1,-1.271737456E0,-7.981874943E-1,-5.746124983E-1
9.054362520E-1,-1.338837504E0,-8.216999769E-1,-5.894625187E-1
9.079389420E-1,-1.413362503E0,-8.632249832E-1,-5.970249772E-1
9.104414830E-1,-1.497375011E0,-8.971874714E-1,-6.118749976E-1
9.129439440E-1,-1.573962450E0,-9.046124816E-1,-6.320874691E-1
9.154466340E-1,-1.645324945E0,-8.951249719E-1,-6.502375007E-1
9.179491800E-1,-1.715587497E0,-8.695499897E-1,-6.682500243E-1
9.204518700E-1,-1.778287530E0,-8.291249871E-1,-6.736124754E-1
9.229543340E-1,-1.831499934E0,-7.855374813E-1,-6.736124754E-1
9.254568700E-1,-1.877287507E0,-7.375500202E-1,-6.714124680E-1
9.279595870E-1,-1.912487507E0,-6.865375042E-1,-6.608250141E-1
9.304621270E-1,-1.936962485E0,-6.418499947E-1,-6.469374895E-1
9.329648170E-1,-1.957175016E0,-5.992249846E-1,-6.320874691E-1
9.354672810E-1,-1.961437464E0,-5.587999821E-1,-6.193000078E-1
9.379698120E-1,-1.961437464E0,-5.237374902E-1,-6.065124869E-1
9.404725050E-1,-1.950712442E0,-4.992625117E-1,-5.948249698E-1
9.429750450E-1,-1.931599975E0,-4.789125025E-1,-5.842375159E-1
9.454777350E-1,-1.904924989E0,-4.598000050E-1,-5.788750052E-1
9.479802080E-1,-1.873024940E0,-4.417875111E-1,-5.777750015E-1
9.504827440E-1,-1.840024948E0,-4.236375093E-1,-5.788750052E-1
9.529854370E-1,-1.801800013E0,-4.054875076E-1,-5.809375048E-1
9.554879000E-1,-1.758074999E0,-3.885749876E-1,-5.885000229E-1
9.579906920E-1,-1.717649937E0,-3.726249933E-1,-5.916625261E-1
9.604931550E-1,-1.676125050E0,-3.619000018E-1,-5.990874767E-1
9.629956940E-1,-1.630475044E0,-3.544749916E-1,-6.033499837E-1
9.654983840E-1,-1.588950038E0,-3.438875079E-1,-6.118749976E-1
9.680009330E-1,-1.549487472E0,-3.353624940E-1,-6.172375083E-1
9.705036240E-1,-1.511262536E0,-3.246375024E-1,-6.204000115E-1
9.730060870E-1,-1.476062536E0,-3.172124922E-1,-6.215000153E-1
9.755086240E-1,-1.443062544E0,-3.086875081E-1,-6.267250180E-1
9.780113350E-1,-1.410062551E0,-3.023625016E-1,-6.278250217E-1
9.805138750E-1,-1.381325006E0,-2.949374914E-1,-6.193000078E-1
9.830163370E-1,-1.353687525E0,-2.895750105E-1,-6.118749976E-1
9.855190270E-1,-1.329212546E0,-2.831124961E-1,-6.087124944E-1
9.880215630E-1,-1.305837512E0,-2.745875120E-1,-5.979874730E-1
9.905242530E-1,-1.285624981E0,-2.534124851E-1,-5.809375048E-1
9.930267170E-1,-1.268574953E0,-2.278375030E-1,-5.649874806E-1
9.955292530E-1,-1.251525044E0,-1.959374994E-1,-5.512375236E-1
9.980319310E-1,-1.237774968E0,-1.564749926E-1,-5.362499952E-1
1.000534472E0,-1.220724940E0,-1.192125008E-1,-5.224999785E-1
1.003036933E0,-1.211099982E0,-7.246249914E-2,-5.086125135E-1
1.005539624E0,-1.209037542E0,-2.777500078E-2,-5.000874996E-1
1.008042164E0,-1.204774976E0,1.374999993E-2,-4.958249927E-1
1.010544854E0,-1.201475024E0,5.843750015E-2,-4.947249889E-1
1.013047318E0,-1.210000038E0,1.031249985E-1,-4.969249964E-1
1.015549855E0,-1.219624996E0,1.457500011E-1,-4.989874959E-1
1.018052547E0,-1.234475017E0,1.947000027E-1,-5.075125098E-1
1.020555087E0,-1.253725052E0,2.446125001E-1,-5.160375237E-1
1.023057778E0,-1.278200030E0,2.937000096E-1,-5.267624855E-1
1.025560318E0,-1.313262463E0,3.543374836E-1,-5.362499952E-1
1.028062780E0,-1.350525022E0,4.287250042E-1,-5.490375161E-1
1.030565470E0,-1.395212531E0,5.245624781E-1,-5.586624742E-1
1.033068010E0,-1.453787446E0,6.384124756E-1,-5.671874881E-1
1.035570701E0,-1.514425039E0,7.735750079E-1,-5.777750015E-1
1.038073241E0,-1.581524968E0,9.193249941E-1,-5.937250257E-1
1.040575703E0,-1.652750015E0,1.071537495E0,-6.118749976E-1
1.043078388E0,-1.732637525E0,1.228012443E0,-6.395124793E-1
1.045580852E0,-1.811287522E0,1.383387446E0,-6.747124791E-1
1.048083619E0,-1.894337535E0,1.535599947E0,-7.108749747E-1
1.050586082E0,-1.979449987E0,1.682449937E0,-7.501999736E-1
1.053088593E0,-2.063600063E0,1.829300046E0,-7.991499901E-1
1.055591283E0,-2.152975082E0,1.973950028E0,-8.523625135E-1
1.058093824E0,-2.239187479E0,2.121900082E0,-9.055749774E-1
1.060596285E0,-2.323199987E0,2.267787457E0,-9.598875046E-1
1.063098966E0,-2.404049873E0,2.407212496E0,-1.015162468E0
1.065601507E0,-2.483937502E0,2.543337584E0,-1.068374991E0
1.068104197E0,-2.564787388E0,2.680700064E0,-1.121587515E0
1.070606738E0,-2.637112379E0,2.812562466E0,-1.167374969E0
1.073109189E0,-2.708474874E0,2.947725058E0,-1.210962534E0
1.075611880E0,-2.772274971E0,3.079725027E0,-1.248224974E0
1.078114420E0,-2.828649998E0,3.206362486E0,-1.276962519E0
1.080617110E0,-2.879800081E0,3.324475050E0,-1.301437497E0
1.083119559E0,-2.926687479E0,3.434062481E0,-1.322749972E0
1.085622095E0,-2.967112541E0,3.534162521E0,-1.334437490E0
1.088124788E0,-3.003274918E0,3.622437477E0,-1.344062448E0
1.090627328E0,-3.032974958E0,3.701225042E0,-1.348325014E0
1.093129999E0,-3.056487560E0,3.775749922E0,-1.345162511E0
1.095632463E0,-3.073537588E0,3.840650082E0,-1.331274986E0
1.098134999E0,-3.084125042E0,3.898124933E0,-1.309962511E0
1.100637692E0,-3.093750000E0,3.951337576E0,-1.285487533E0
1.103140232E0,-3.101175070E0,4.002349854E0,-1.248224974E0
1.105642938E0,-3.101175070E0,4.036449909E0,-1.202437520E0
1.108145401E0,-3.098012447E0,4.057762623E0,-1.148262501E0
1.110647938E0,-3.092649937E0,4.055562496E0,-1.081162453E0
1.113150401E0,-3.080962420E0,4.017337322E0,-1.011999965E0
1.115653172E0,-3.063912392E0,3.955600023E0,-9.354124665E-1
1.118155636E0,-3.043699980E0,3.877912521E0,-8.503000140E-1
1.120658326E0,-3.016062498E0,3.790600061E0,-7.533624768E-1
1.123160867E0,-2.981962442E0,3.701225042E0,-6.586250067E-1
1.125663548E0,-2.943599939E0,3.612950087E0,-5.554999709E-1
1.128166012E0,-2.898912430E0,3.537324905E0,-4.468750060E-1
1.130668548E0,-2.844737530E0,3.467062473E0,-3.372874856E-1
1.133171240E0,-2.785062551E0,3.398999929E0,-2.212374955E-1
1.135673757E0,-2.723325014E0,3.331899881E0,-1.031249985E-1
1.138176218E0,-2.656362534E0,3.262737513E0,4.262499977E-3
1.140678909E0,-2.583899975E0,3.193574905E0,1.139874980E-1
1.143181449E0,-2.506212473E0,3.114787579E0,2.204124928E-1
1.145684100E0,-2.427562475E0,3.032837391E0,3.140499890E-1
1.148186564E0,-2.347675085E0,2.953087568E0,4.045250118E-1
1.150689100E0,-2.257200003E0,2.870037556E0,4.874374866E-1
1.153191793E0,-2.170987606E0,2.793449879E0,5.619624853E-1
1.155694309E0,-2.089037418E0,2.727449894E0,6.322249770E-1
1.158197000E0,-2.005024910E0,2.676437378E0,6.991875172E-1
1.160699463E0,-1.925137520E0,2.636012554E0,7.609249949E-1
1.163202000E0,-1.851712465E0,2.606174946E0,8.120750189E-1
1.165704692E0,-1.786812544E0,2.575237513E0,8.588249683E-1
1.168207232E0,-1.723012447E0,2.542237520E0,8.929250240E-1
1.170709694E0,-1.668699980E0,2.501812458E0,9.174000025E-1
1.173212461E0,-1.621950030E0,2.466749907E0,9.333499670E-1
1.175714925E0,-1.578225017E0,2.427424908E0,9.418749809E-1
1.178217610E0,-1.543162465E0,2.384799957E0,9.365124702E-1
1.180720150E0,-1.520750046E0,2.345474958E0,9.279875159E-1
1.183222841E0,-1.502737522E0,2.310275078E0,9.153375030E-1
1.185725304E0,-1.491050005E0,2.277275085E0,8.992499709E-1
1.188227841E0,-1.488849998E0,2.254999876E0,8.812375069E-1
1.190730538E0,-1.491050005E0,2.237950087E0,8.610249758E-1
1.193233079E0,-1.502737522E0,2.221999884E0,8.408125043E-1
1.195735540E0,-1.517587543E0,2.212374926E0,8.205999732E-1
1.198238230E0,-1.536700010E0,2.209212542E0,8.067125082E-1
1.200740766E0,-1.555950046E0,2.200687408E0,7.939249873E-1
1.203243456E0,-1.578225017E0,2.188999891E0,7.844374776E-1
1.205745920E0,-1.601737499E0,2.174149990E0,7.726125121E-1
1.208248456E0,-1.624012470E0,2.150637388E0,7.673875093E-1
1.210751125E0,-1.644225001E0,2.114475012E0,7.599624991E-1
1.213253665E0,-1.658112526E0,2.075150013E0,7.566624880E-1
1.215756127E0,-1.670899987E0,2.029362440E0,7.577624917E-1
1.218258817E0,-1.683687449E0,1.978212476E0,7.566624880E-1
1.220761381E0,-1.690012455E0,1.932562470E0,7.609249949E-1
1.223264072E0,-1.692075014E0,1.891037464E0,7.726125121E-1
1.225766612E0,-1.691112518E0,1.847312450E0,7.833374739E-1
1.228269074E0,-1.685750008E0,1.806887507E0,8.013499975E-1
1.230771755E0,-1.680387497E0,1.764400005E0,8.184000254E-1
1.233274295E0,-1.666637540E0,1.714349985E0,8.322874904E-1
1.235776986E0,-1.648487449E0,1.667462468E0,8.493375182E-1
1.238279449E0,-1.628275037E0,1.614249945E0,8.684499860E-1
1.240782217E0,-1.609162450E0,1.557875037E0,8.897625208E-1
1.243284689E0,-1.583587527E0,1.510025024E0,9.110749960E-1
1.245787228E0,-1.558012486E0,1.465337515E0,9.333499670E-1
1.248289918E0,-1.533537507E0,1.426975012E0,9.589250088E-1
1.250792458E0,-1.508100033E0,1.398237467E0,9.833999872E-1
1.253294944E0,-1.483487487E0,1.378024936E0,1.012137532E0
1.255797634E0,-1.459012508E0,1.365237474E0,1.044037461E0
1.258300175E0,-1.436737537E0,1.354650021E0,1.077037454E0
1.260802865E0,-1.415424943E0,1.349287510E0,1.110037446E0
1.263305309E0,-1.393149972E0,1.347224951E0,1.140837550E0
1.265807846E0,-1.370737433E0,1.346125007E0,1.171774983E0
1.268310538E0,-1.350525022E0,1.337599993E0,1.202574968E0
1.270813079E0,-1.331412435E0,1.323850036E0,1.228150010E0
1.273315540E0,-1.314362526E0,1.300337434E0,1.247262478E0
1.275818231E0,-1.301574945E0,1.268437505E0,1.262249947E0
1.278320771E0,-1.289887547E0,1.236537457E0,1.272837520E0
1.280823461E0,-1.286725044E0,1.199275017E0,1.279299974E0
1.283325911E0,-1.283424973E0,1.165174961E0,1.280262470E0
1.285828447E0,-1.287687540E0,1.138637543E0,1.275037527E0
1.288331140E0,-1.297312498E0,1.121587515E0,1.264312506E0
1.290833680E0,-1.310099959E0,1.115262508E0,1.249462485E0
1.293336350E0,-1.327149987E0,1.126950026E0,1.231312513E0
1.295838814E0,-1.348462462E0,1.150324941E0,1.203675032E0
1.298341581E0,-1.379262447E0,1.181125045E0,1.172875047E0
1.300844045E0,-1.410062551E0,1.220587492E0,1.134512544E0
1.303346593E0,-1.444162488E0,1.267337441E0,1.092987537E0
1.305849284E0,-1.482524991E0,1.327012539E0,1.050500035E0
1.308351747E0,-1.520750046E0,1.393012524E0,1.004712462E0
1.310854284E0,-1.561174989E0,1.463137507E0,9.535624981E-1
1.313356995E0,-1.602699995E0,1.533399940E0,9.099749923E-1
1.315859535E0,-1.641062498E0,1.594037533E0,8.641874790E-1
1.318362226E0,-1.679425001E0,1.644087434E0,8.205999732E-1
1.320864689E0,-1.716549993E0,1.682449937E0,7.768750191E-1
1.323367245E0,-1.748587489E0,1.708024979E0,7.429124713E-1
1.325869937E0,-1.778287530E0,1.719712496E0,7.110124826E-1
1.328372477E0,-1.801800013E0,1.726037502E0,6.780124903E-1
1.330874939E0,-1.812387466E0,1.744187474E0,6.470749974E-1
1.333377648E0,-1.804962516E0,1.766462445E0,6.162750125E-1
1.335880189E0,-1.791074991E0,1.765362501E0,5.895999670E-1
1.338382879E0,-1.777325034E0,1.756974936E0,5.640249848E-1
1.340885343E0,-1.760275006E0,1.751612544E0,5.449125171E-1
1.343387879E0,-1.736899972E0,1.744187474E0,5.343250036E-1
1.345890552E0,-1.712424994E0,1.732499957E0,5.257999897E-1
1.348393093E0,-1.691112518E0,1.723974943E0,5.193374753E-1
1.350895554E0,-1.660174966E0,1.714349985E0,5.215374827E-1
1.353398245E0,-1.627174973E0,1.703762531E0,5.374875069E-1
1.355900766E0,-1.605999947E0,1.681349993E0,5.630624890E-1
1.358403457E0,-1.601737499E0,1.634600043E0,5.949624777E-1
1.360905997E0,-1.601737499E0,1.590875030E0,6.279624701E-1
1.363408459E0,-1.599537492E0,1.580287457E0,6.737499833E-1
1.365911134E0,-1.599537492E0,1.552649975E0,7.247624993E-1
1.368413674E0,-1.601737499E0,1.521712542E0,7.801749706E-1
1.370916136E0,-1.603799939E0,1.505762458E0,8.354499936E-1
1.373418903E0,-1.601737499E0,1.487612486E0,8.918250203E-1
1.375921381E0,-1.595275044E0,1.464237452E0,9.492999911E-1
1.378424071E0,-1.583587527E0,1.440862536E0,1.002512455E0
1.380926611E0,-1.563374996E0,1.417487502E0,1.049399972E0
1.383429302E0,-1.522949934E0,1.408962488E0,1.085562468E0
1.385931765E0,-1.439900041E0,1.438662529E0,1.108937502E0
1.388434259E0,-1.339937449E0,1.444025040E0,1.122825027E0
1.390936951E0,-1.225950003E0,1.445124984E0,1.124887466E0
1.393439492E0,-1.094087481E0,1.463137507E0,1.123924971E0
1.395942182E0,-9.472374916E-1,1.487612486E0,1.113199949E0
1.398444645E0,-7.875999808E-1,1.522812486E0,1.094087481E0
1.400947182E0,-6.205375195E-1,1.563237548E0,1.067412496E0
1.403449874E0,-4.609000087E-1,1.602562547E0,1.037712455E0
1.405952415E0,-3.192749918E-1,1.639824986E0,1.009937525E0
1.408454861E0,-1.926375031E-1,1.671725035E0,9.822999835E-1
1.410957552E0,-8.937499672E-2,1.699499965E0,9.578250051E-1
1.413460092E0,-1.388750039E-2,1.723974943E0,9.398124814E-1
1.415962782E0,4.895000160E-2,1.735662460E0,9.301875234E-1
1.418465237E0,9.363749623E-2,1.739925027E0,9.259250164E-1
1.420967773E0,1.170125008E-1,1.737725019E0,9.301875234E-1
1.423470466E0,1.266375035E-1,1.720674992E0,9.440749884E-1
1.425973006E0,1.233374998E-1,1.693037510E0,9.631875157E-1
1.428475468E0,1.064250022E-1,1.654812455E0,9.822999835E-1
1.430978182E0,8.401250094E-2,1.609025002E0,1.011037469E0
1.433480722E0,6.173750013E-2,1.558974981E0,1.044037461E0
1.435983413E0,2.543750033E-2,1.512087464E0,1.081300020E0
1.438485876E0,-1.498750038E-2,1.470700026E0,1.123924971E0
1.440988620E0,-5.321250111E-2,1.424912453E0,1.172875047E0
1.443491083E0,-9.047500044E-2,1.380224943E0,1.219624996E0
1.445993622E0,-1.245749965E-1,1.336500049E0,1.269675016E0
1.448496312E0,-1.607374996E-1,1.291812539E0,1.317525029E0
1.450998876E0,-1.991000026E-1,1.252487540E0,1.366474986E0
1.453501338E0,-2.363625020E-1,1.215224981E0,1.413362503E0
1.456004028E0,-2.682625055E-1,1.183325052E0,1.460112453E0
1.458506569E0,-2.947999835E-1,1.156649947E0,1.508100033E0
1.461009278E0,-3.257375062E-1,1.144000053E0,1.553750038E0
1.463511741E0,-3.511750102E-1,1.140699983E0,1.596374989E0
1.466014278E0,-3.724874854E-1,1.146062493E0,1.637899995E0
1.468516970E0,-3.926999867E-1,1.163112521E0,1.679425001E0
1.471019511E0,-4.086500108E-1,1.184424996E0,1.721912503E0
1.473522201E0,-4.225375056E-1,1.200374961E0,1.758074999E0
1.476024665E0,-4.288625121E-1,1.217424989E0,1.784749985E0
1.478527201E0,-4.364250004E-1,1.235437512E0,1.806062460E0
1.481029893E0,-4.427500069E-1,1.250424981E0,1.820912480E0
1.483532434E0,-4.470124841E-1,1.257850051E0,1.832599998E0
1.486034890E0,-4.449499846E-1,1.261012435E0,1.845387459E0
1.488537581E0,-4.449499846E-1,1.254549980E0,1.857074976E0
1.491040121E0,-4.533374906E-1,1.241899967E0,1.867799997E0
1.493542811E0,-4.587000012E-1,1.220587492E0,1.877287507E0
1.496045289E0,-4.640625119E-1,1.187587500E0,1.895437479E0
1.498547826E0,-4.757499993E-1,1.146062493E0,1.913450003E0
1.501050518E0,-4.831750095E-1,1.111962438E0,1.928437471E0
1.503553058E0,-4.916999936E-1,1.071537495E0,1.954012513E0
1.506055468E0,-5.044875145E-1,1.031112552E0,1.980549932E0
1.508558235E0,-5.235999823E-1,9.832624793E-1,2.013550043E0
1.511060699E0,-5.385875106E-1,9.406374693E-1,2.044349909E0
1.513563389E0,-5.491750240E-1,9.055749774E-1,2.061399937E0
1.516065929E0,-5.512375236E-1,8.694124818E-1,2.067862511E0
1.518568610E0,-5.523374677E-1,8.375124931E-1,2.072124958E0
1.521071073E0,-5.428500175E-1,8.140000105E-1,2.061399937E0
1.523573610E0,-5.246999860E-1,7.917249799E-1,2.036925077E0
1.526076302E0,-5.055875182E-1,7.789375186E-1,2.011349916E0
1.528578876E0,-4.831750095E-1,7.672500014E-1,1.976287484E0
1.531081338E0,-4.598000050E-1,7.607874870E-1,1.935862541E0
1.533584028E0,-4.353249967E-1,7.522624731E-1,1.893237472E0
1.536086569E0,-4.086500108E-1,7.394750118E-1,1.847587466E0
1.538589274E0,-3.863750100E-1,7.235249877E-1,1.796437502E0
1.541091738E0,-3.639625013E-1,7.149999738E-1,1.737862468E0
1.543594274E0,-3.480125070E-1,7.118374705E-1,1.671862483E0
1.546096966E0,-3.320625126E-1,7.044125199E-1,1.597474933E0
1.548599507E0,-3.118500113E-1,7.001500130E-1,1.511262536E0
1.551101968E0,-2.842124999E-1,7.044125199E-1,1.421887517E0
1.553604659E0,-2.523125112E-1,7.033125162E-1,1.327149987E0
1.556107199E0,-2.085874975E-1,6.938250065E-1,1.231312513E0
1.558609923E0,-1.596374959E-1,6.821374893E-1,1.136574984E0
1.561112386E0,-1.117874980E-1,6.767749786E-1,1.042937517E0
1.563614923E0,-6.173750013E-2,6.682500243E-1,9.546625018E-1
1.566117615E0,-1.594999991E-2,6.639875174E-1,8.747749925E-1
1.568620141E0,2.653750032E-2,6.693499684E-1,8.046500087E-1
1.571122832E0,7.012499869E-2,6.767749786E-1,7.460749745E-1
1.573625295E0,1.084875017E-1,6.821374893E-1,6.982250214E-1
1.576127832E0,1.436875015E-1,6.788374782E-1,6.567000151E-1
1.578630533E0,1.733874977E-1,6.745749712E-1,6.226000190E-1
1.581132997E0,1.978625059E-1,6.608250141E-1,5.885000229E-1
1.583635764E0,2.202749997E-1,6.330500245E-1,5.630624890E-1
1.586138227E0,2.373249978E-1,5.937250257E-1,5.406500101E-1
1.588640766E0,2.532750070E-1,5.479375124E-1,5.215374827E-1
1.591143227E0,2.670249939E-1,4.904625118E-1,5.076500177E-1
1.593645995E0,2.777499855E-1,4.203374982E-1,4.981625080E-1
1.596148458E0,2.883374989E-1,3.458124995E-1,4.939000010E-1
1.598651168E0,2.937000096E-1,2.659249902E-1,4.981625080E-1
1.601153709E0,2.915000021E-1,1.819124967E-1,5.087500215E-1
1.603656399E0,2.883374989E-1,9.569999576E-2,5.150749683E-1
1.606158863E0,2.766500115E-1,4.124999978E-3,5.235999823E-1
1.608661408E0,2.660624981E-1,-8.635000139E-2,5.300624967E-1
1.611164101E0,2.532750070E-1,-1.714625061E-1,5.406500101E-1
1.613666641E0,2.362249941E-1,-2.576749921E-1,5.587999821E-1
1.616169103E0,2.213750035E-1,-3.427875042E-1,5.736500025E-1
1.618671793E0,2.021249980E-1,-4.258374870E-1,5.801125169E-1
1.621174324E0,1.861750036E-1,-5.076500177E-1,5.821750164E-1
1.623677015E0,1.733874977E-1,-5.917999744E-1,5.810750127E-1
1.626179478E0,1.681624949E-1,-6.791124940E-1,5.747500062E-1
1.628682015E0,1.639000028E-1,-7.748125196E-1,5.640249848E-1
1.631184692E0,1.585374922E-1,-8.621249795E-1,5.460125208E-1
1.633687232E0,1.489125043E-1,-9.429749846E-1,5.193374753E-1
1.636189694E0,1.414874941E-1,-1.011037469E0,4.927999973E-1
1.638692384E0,1.329624951E-1,-1.064249992E0,4.651624858E-1
1.641194925E0,1.255374998E-1,-1.107975006E0,4.438500106E-1
1.643697620E0,1.212750003E-1,-1.139874935E0,4.247374833E-1
1.646200161E0,1.223749965E-1,-1.151562452E0,4.086500108E-1
1.648702622E0,1.212750003E-1,-1.131350040E0,3.906374872E-1
1.651205389E0,1.212750003E-1,-1.100412488E0,3.715249896E-1
1.653707872E0,1.340624988E-1,-1.065349936E0,3.619000018E-1
1.656210562E0,1.457500011E-1,-1.023825049E0,3.470500112E-1
1.658713026E0,1.574375033E-1,-9.695125222E-1,3.278000057E-1
1.661215793E0,1.713249981E-1,-9.088749886E-1,3.118500113E-1
1.663718257E0,1.893374920E-1,-8.471375108E-1,2.862749994E-1
1.666220795E0,2.074874938E-1,-7.929624915E-1,2.586374879E-1
1.668723485E0,2.265999913E-1,-7.429124713E-1,2.278375030E-1
1.671226026E0,2.490125000E-1,-6.897000074E-1,1.948374957E-1
1.673728544E0,2.809124887E-1,-6.503750086E-1,1.586750001E-1
1.676231235E0,3.150124848E-1,-6.088500023E-1,1.182499975E-1
1.678733775E0,3.437500000E-1,-5.608624816E-1,7.562500238E-2
1.681236465E0,3.713875115E-1,-5.066875219E-1,3.203750029E-2
1.683738967E0,3.990249932E-1,-4.449499846E-1,-6.324999966E-3
1.686241503E0,4.223999977E-1,-3.778499961E-1,-4.991250113E-2
1.688744196E0,4.459125102E-1,-3.108874857E-1,-9.459999949E-2
1.691246736E0,4.713499844E-1,-2.437874973E-1,-1.361249983E-1
1.693749198E0,4.937624931E-1,-1.692624986E-1,-1.713249981E-1
1.696251888E0,5.202999711E-1,-1.043625027E-1,-2.074874938E-1
1.698754429E0,5.352874994E-1,-5.224999785E-2,-2.425500005E-1
1.701257119E0,5.278624892E-1,-1.608750038E-2,-2.681249976E-1
1.703759602E0,5.128750205E-1,7.424999960E-3,-2.862749994E-1
1.706262139E0,5.086125135E-1,4.358749837E-2,-3.107500076E-1
1.708764831E0,5.022875071E-1,5.953750014E-2,-3.372874856E-1
1.711267372E0,4.883999825E-1,7.548750192E-2,-3.606624901E-1
1.713769829E0,4.713499844E-1,8.511249721E-2,-3.799124956E-1
1.716272519E0,4.511374831E-1,9.253749996E-2,-3.968249857E-1
1.718775060E0,4.362874925E-1,9.569999576E-2,-4.138749838E-1
1.721277750E0,4.214375019E-1,9.569999576E-2,-4.309250116E-1
1.723780291E0,4.129124880E-1,9.996250272E-2,-4.564999938E-1
1.726282732E0,4.032875001E-1,9.350000322E-2,-4.873000085E-1
1.728785423E0,3.799124956E-1,7.548750192E-2,-5.267624855E-1
1.731287963E0,3.543374836E-1,6.270000339E-2,-5.735124946E-1
1.733790653E0,3.330250084E-1,4.881250113E-2,-6.278250217E-1
1.736293194E0,3.128125072E-1,3.822499886E-2,-6.938250065E-1
1.738795675E0,2.915000021E-1,3.822499886E-2,-7.715125084E-1
1.741298366E0,2.712875009E-1,4.564999789E-2,-8.555250168E-1
1.743800906E0,2.564375103E-1,6.063750014E-2,-9.513624907E-1
1.746303596E0,2.425500005E-1,7.975000143E-2,-1.054625034E0
1.748806064E0,2.330625057E-1,9.679999948E-2,-1.169437528E0
1.751308600E0,2.245374918E-1,1.095874980E-1,-1.282325029E0
1.753811293E0,2.180749923E-1,1.116499975E-1,-1.393012524E0
1.756313833E0,2.149125040E-1,9.569999576E-2,-1.502599955E0
1.758816291E0,2.223374993E-1,6.063750014E-2,-1.611087441E0
1.761318981E0,2.340250015E-1,1.801249944E-2,-1.715450048E0
1.763821522E0,2.553375065E-1,-2.887500077E-2,-1.814450026E0
1.766324212E0,2.829749882E-1,-7.988750190E-2,-1.900662541E0
1.768826660E0,3.128125072E-1,-1.373624951E-1,-1.972987533E0
1.771329197E0,3.394874930E-1,-2.001999915E-1,-2.036787510E0
1.773831889E0,3.671250045E-1,-2.628999949E-1,-2.086837530E0
1.776334430E0,4.001249969E-1,-3.331624866E-1,-2.122999907E0
1.778836877E0,4.192374945E-1,-4.151124954E-1,-2.138949871E0
1.781339568E0,4.288625121E-1,-5.033875108E-1,-2.142250061E0
1.783842108E0,4.320249856E-1,-5.981249809E-1,-2.131525040E0
1.786344798E0,4.192374945E-1,-6.917625070E-1,-2.105949879E0
1.788847257E0,4.001249969E-1,-7.737125158E-1,-2.068825006E0
1.791349793E0,3.777124882E-1,-8.578624725E-1,-2.020837545E0
1.793852486E0,3.447124958E-1,-9.461374879E-1,-1.964462519E0
1.796355026E0,3.074499965E-1,-1.037712455E0,-1.892137527E0
1.798857730E0,2.617999911E-1,-1.131350040E0,-1.798499942E0
1.801360194E0,2.074874938E-1,-1.214400053E0,-1.684512496E0
1.803862961E0,1.596374959E-1,-1.278200030E0,-1.560075045E0
1.806365425E0,1.181124970E-1,-1.323987484E0,-1.426012516E0
1.808867977E0,9.363749623E-2,-1.355887532E0,-1.294012547E0
1.811370439E0,8.827500045E-2,-1.369774938E0,-1.169437528E0
1.813873206E0,9.679999948E-2,-1.364412546E0,-1.056687474E0
1.816375670E0,1.255374998E-1,-1.349562526E0,-9.619500041E-1
1.818878351E0,1.681624949E-1,-1.334574938E0,-8.916875124E-1
1.821380891E0,2.171124965E-1,-1.310099959E0,-8.417750001E-1
1.823883582E0,2.840749919E-1,-1.266512513E0,-8.278874755E-1
1.826386045E0,3.554374874E-1,-1.223887444E0,-8.449375033E-1
1.828888587E0,4.223999977E-1,-1.185662508E0,-8.810999990E-1
1.831391279E0,4.873000085E-1,-1.150462508E0,-9.374749660E-1
1.833893819E0,5.490375161E-1,-1.116500020E0,-1.005674958E0
1.836396281E0,5.979874730E-1,-1.095187545E0,-1.075799942E0
1.838898951E0,6.300249696E-1,-1.074975014E0,-1.144962549E0
1.841401492E0,6.511999965E-1,-1.045137525E0,-1.214262486E0
1.843904182E0,6.587625146E-1,-1.004712462E0,-1.290850043E0
1.846406646E0,6.491374969E-1,-9.546625018E-1,-1.360012531E0
1.848909153E0,6.182000041E-1,-9.068124890E-1,-1.420650005E0
1.851411845E0,5.692499876E-1,-8.738124967E-1,-1.468500018E0
1.853914386E0,5.117750168E-1,-8.514000177E-1,-1.527074933E0
1.856416847E0,4.544374943E-1,-8.269249797E-1,-1.598437548E0
1.858919519E0,3.990249932E-1,-7.939249873E-1,-1.683550000E0
1.861422059E0,3.500750065E-1,-7.503374815E-1,-1.793137431E0
1.863924750E0,3.117125034E-1,-6.928625107E-1,-1.912349939E0
1.866427213E0,2.840749919E-1,-6.258999705E-1,-2.030462503E0
1.868929701E0,2.638624907E-1,-5.576999784E-1,-2.149674892E0
1.871432393E0,2.595999837E-1,-4.874374866E-1,-2.260362387E0
1.873934933E0,2.681249976E-1,-4.012250006E-1,-2.365687370E0
1.876437624E0,2.957625091E-1,-3.044250011E-1,-2.468950033E0
1.878940078E0,3.192749918E-1,-1.820500046E-1,-2.573174953E0
1.881442615E0,3.213374913E-1,-2.983750030E-2,-2.667912483E0
1.883945307E0,3.117125034E-1,1.031249985E-1,-2.741337538E0
1.886447847E0,2.883374989E-1,2.329249978E-1,-2.790287495E0
1.888950538E0,2.490125000E-1,3.713875115E-1,-2.819025040E0
1.891453010E0,2.000624985E-1,5.191999674E-1,-2.824387550E0
1.893955547E0,1.553750038E-1,6.852999926E-1,-2.814762592E0
1.896458010E0,1.159124970E-1,8.577250242E-1,-2.796612501E0
1.898960778E0,8.084999770E-2,1.023687482E0,-2.768975019E0
1.901463217E0,5.101250112E-2,1.158849955E0,-2.753025055E0
1.903965907E0,2.021249942E-2,1.273800015E0,-2.740237474E0
1.906468448E0,-1.278750040E-2,1.369500041E0,-2.729650021E0
1.908971138E0,-3.409999982E-2,1.459975004E0,-2.721124887E0
1.911473597E0,-4.578749835E-2,1.539862514E0,-2.717962503E0
1.913976133E0,-5.747500062E-2,1.609025002E0,-2.712599993E0
1.916478826E0,-6.063750014E-2,1.672824979E0,-2.709437370E0
1.918981366E0,-6.173750013E-2,1.741987467E0,-2.710537434E0
1.921483828E0,-5.857500061E-2,1.814450026E0,-2.714799881E0
1.923986485E0,-5.321250111E-2,1.882512450E0,-2.726487398E0
1.926489025E0,-4.895000160E-2,1.933524966E0,-2.739274979E0
1.928991716E0,-4.042499885E-2,1.963362455E0,-2.754124880E0
1.931494179E0,-3.409999982E-2,1.960199952E0,-2.768975019E0
1.933996716E0,-3.409999982E-2,1.948512435E0,-2.788224936E0
1.936499393E0,-4.152499884E-2,1.951674938E0,-2.811599970E0
1.939001933E0,-5.004999787E-2,1.968724966E0,-2.831812382E0
1.941504395E0,-6.599999964E-2,1.987837434E0,-2.850924969E0
1.944007085E0,-8.195000142E-2,1.984674931E0,-2.864812374E0
1.946509645E0,-1.097249985E-1,1.952775002E0,-2.875400066E0
1.949012335E0,-1.383250058E-1,1.881412506E0,-2.883924961E0
1.951514799E0,-1.681624949E-1,1.786674976E0,-2.891350031E0
1.954017335E0,-1.937374920E-1,1.664299965E0,-2.905237436E0
1.956520032E0,-2.182125002E-1,1.528174996E0,-2.918025017E0
1.959022573E0,-2.404875010E-1,1.385450006E0,-2.931775093E0
1.961525263E0,-2.660624981E-1,1.253587484E0,-2.942499876E0
1.964027727E0,-2.927374840E-1,1.139737487E0,-2.949924946E0
1.966530254E0,-3.118500113E-1,1.043900013E0,-2.959549904E0
1.969032946E0,-3.374249935E-1,9.747374654E-1,-2.970137596E0
1.971535487E0,-3.544749916E-1,9.172624946E-1,-2.969037533E0
1.974038177E0,-3.650625050E-1,8.619874716E-1,-2.970137596E0
1.976540641E0,-3.874749839E-1,8.310499787E-1,-2.956249952E0
1.979043177E0,-4.076874852E-1,8.193625212E-1,-2.900974989E0
1.981545870E0,-4.182749987E-1,7.629874945E-1,-2.803075075E0
1.984048410E0,-4.246000051E-1,6.415749788E-1,-2.689224958E0
1.986550857E0,-4.034250081E-1,4.394499958E-1,-2.563549995E0
1.989053547E0,-3.746874928E-1,1.989624947E-1,-2.411474943E0
1.991556087E0,-3.385249972E-1,-5.335000157E-2,-2.253900051E0
1.994058778E0,-2.895750105E-1,-2.949374914E-1,-2.087937593E0
1.996561246E0,-2.363625020E-1,-5.257999897E-1,-1.905887485E0
1.999063783E0,-1.724250019E-1,-7.514374852E-1,-1.697299957E0
2.001566475E0,-1.021625027E-1,-9.589250088E-1,-1.475924969E0
2.004069015E0,-3.093750030E-2,-1.131350040E0,-1.258949995E0
2.006571434E0,3.726249933E-2,-1.269675016E0,-1.059849977E0
2.009074124E0,9.679999948E-2,-1.372937441E0,-8.831624985E-1
2.011576665E0,1.478125006E-1,-1.446362495E0,-7.257249951E-1
2.014079355E0,1.893374920E-1,-1.494212508E0,-5.990874767E-1
2.016581828E0,2.297624946E-1,-1.524049997E0,-5.032500029E-1
2.019084364E0,2.606999874E-1,-1.527212501E0,-4.331249893E-1
2.021587056E0,2.798124850E-1,-1.519787550E0,-3.745499849E-1
2.024089597E0,2.947999835E-1,-1.514425039E0,-3.319250047E-1
2.026592053E0,3.031874895E-1,-1.512362480E0,-2.979624867E-1
2.029094821E0,3.139125109E-1,-1.512362480E0,-2.617999911E-1
2.031597284E0,3.192749918E-1,-1.513324976E0,-2.330625057E-1
2.034099975E0,3.235374987E-1,-1.515524983E0,-2.052875012E-1
2.036602545E0,3.276624978E-1,-1.514425039E0,-1.798499972E-1
2.039105235E0,3.276624978E-1,-1.489949942E0,-1.585374922E-1
2.041607776E0,3.330250084E-1,-1.452687502E0,-1.383250058E-1
2.044110237E0,3.309625089E-1,-1.403737545E0,-1.212750003E-1
2.046612928E0,3.372874856E-1,-1.351624966E0,-1.064250022E-1
2.049115468E0,3.489750028E-1,-1.301574945E0,-1.053249985E-1
2.051617930E0,3.649249971E-1,-1.259087443E0,-1.170125008E-1
2.054120620E0,3.873375058E-1,-1.218662500E0,-1.361249983E-1
2.056623160E0,4.053499997E-1,-1.182362437E0,-1.744875014E-1
2.059125861E0,4.298250079E-1,-1.144137502E0,-2.265999913E-1
2.061628324E0,4.553999901E-1,-1.097249985E0,-2.840749919E-1
2.064130861E0,4.767124951E-1,-1.043074965E0,-3.469125032E-1
2.066633553E0,4.948624969E-1,-9.865624905E-1,-4.053499997E-1
2.069136094E0,5.139750242E-1,-9.355499744E-1,-4.618625045E-1
2.071638808E0,5.299249887E-1,-9.057124853E-1,-5.160375237E-1
2.074141271E0,5.480750203E-1,-8.886625171E-1,-5.671874881E-1
2.076643808E0,5.660874844E-1,-8.812375069E-1,-6.224625111E-1
2.079146500E0,5.788750052E-1,-8.706499934E-1,-6.863999963E-1
2.081649026E0,6.001874804E-1,-8.428750038E-1,-7.555624843E-1
2.084151487E0,6.267250180E-1,-7.961249948E-1,-8.267874718E-1
2.086654178E0,6.511999965E-1,-7.152749896E-1,-8.927875161E-1
2.089156718E0,6.852999926E-1,-5.981249809E-1,-9.513624907E-1
2.091659432E0,7.193999887E-1,-4.481124878E-1,-9.949499965E-1
2.094161896E0,7.555624843E-1,-2.884750068E-1,-1.016262531E0
2.096664663E0,7.937874794E-1,-1.160499975E-1,-1.020524979E0
2.099167127E0,8.300874829E-1,4.138749838E-2,-1.008837461E0
2.101669665E0,8.640499711E-1,1.680250019E-1,-1.000312448E0
2.104172355E0,8.992499709E-1,2.564375103E-1,-9.832624793E-1
2.106674819E0,9.257875085E-1,3.031874895E-1,-9.651125073E-1
2.109177355E0,9.407749772E-1,3.170749843E-1,-9.428374767E-1
2.111680029E0,9.491624832E-1,3.053874969E-1,-9.237250090E-1
2.114182569E0,9.407749772E-1,2.829749882E-1,-9.055749774E-1
2.116685260E0,9.183624983E-1,2.425500005E-1,-8.874250054E-1
2.119187723E0,8.822000027E-1,1.947000027E-1,-8.662499785E-1
2.121690241E0,8.406749964E-1,1.457500011E-1,-8.460375071E-1
2.124192933E0,7.863624692E-1,9.776250273E-2,-8.278874755E-1
2.126695473E0,7.279250026E-1,4.675000161E-2,-8.023124933E-1
2.129197935E0,6.565625072E-1,4.124999978E-3,-7.746750116E-1
2.131700620E0,5.788750052E-1,-2.887500077E-2,-7.427750230E-1
2.134203161E0,5.000874996E-1,-5.541250110E-2,-7.044125199E-1
2.136705851E0,4.203374982E-1,-6.393750012E-2,-6.608250141E-1
2.139208314E0,3.319250047E-1,-5.541250110E-2,-6.139374971E-1
2.141710841E0,2.490125000E-1,-3.739999980E-2,-5.649874806E-1
2.144213533E0,1.670625061E-1,-1.388750039E-2,-5.128750205E-1
2.146716074E0,7.864999771E-2,6.324999966E-3,-4.596624970E-1
2.149218535E0,-1.099999994E-3,2.007500082E-2,-3.958624899E-1
2.151721231E0,-8.524999768E-2,3.616249934E-2,-3.383874893E-1
2.154223771E0,-1.703625023E-1,5.733750015E-2,-2.862749994E-1
2.156726461E0,-2.523125112E-1,8.084999770E-2,-2.404875010E-1
2.159229002E0,-3.299999833E-1,9.996250272E-2,-1.935999990E-1
2.161731434E0,-3.937999904E-1,1.159124970E-1,-1.531749964E-1
2.164234125E0,-4.512749910E-1,1.244374961E-1,-1.170125008E-1
2.166736665E0,-4.991250038E-1,1.159124970E-1,-8.827500045E-2
2.169239127E0,-5.352874994E-1,9.569999576E-2,-6.159999967E-2
2.171741894E0,-5.736500025E-1,6.806249917E-2,-3.506249934E-2
2.174244357E0,-6.034874916E-1,3.189999983E-2,-1.058750041E-2
2.176747092E0,-6.322249770E-1,-5.362499971E-3,1.498750038E-2
2.179249555E0,-6.609625220E-1,-4.688749835E-2,3.836249933E-2
2.181752323E0,-6.886000037E-1,-9.061250091E-2,6.503749639E-2
2.184254786E0,-7.119749784E-1,-1.277374923E-1,9.377499670E-2
2.186757305E0,-7.312250137E-1,-1.640374959E-1,1.234750003E-1
2.189259995E0,-7.492374778E-1,-1.916749924E-1,1.586750001E-1
2.191762535E0,-7.534999847E-1,-2.107875049E-1,1.959374994E-1
2.194264997E0,-7.566624880E-1,-2.213750035E-1,2.373249978E-1
2.196767687E0,-7.556999922E-1,-2.193125039E-1,2.831124961E-1
2.199270233E0,-7.471749783E-1,-2.076250017E-1,3.342624903E-1
2.201772923E0,-7.375500202E-1,-1.979999989E-1,3.800500035E-1
2.204275387E0,-7.226999998E-1,-1.874125004E-1,4.151124954E-1
2.206777923E0,-7.067499757E-1,-1.842499971E-1,4.501749873E-1
2.209280615E0,-6.832374930E-1,-1.820500046E-1,4.779500067E-1
2.211783156E0,-6.587625146E-1,-1.757249981E-1,4.863374829E-1
2.214285617E0,-6.300249696E-1,-1.618375033E-1,4.768500030E-1
2.216788308E0,-5.970249772E-1,-1.405249983E-1,4.268000126E-1
2.219290834E0,-5.704874992E-1,-1.299374998E-1,3.246375024E-1
2.221793524E0,-5.513749719E-1,-1.384624988E-1,1.874125004E-1
2.224295988E0,-5.321249962E-1,-1.447875053E-1,5.431250110E-2
2.226798524E0,-5.108125210E-1,-1.501500010E-1,-4.042499885E-2
2.229301207E0,-4.789125025E-1,-1.544124931E-1,-9.790000319E-2
2.231803747E0,-4.416500032E-1,-1.586750001E-1,-1.383250058E-1
2.234306209E0,-4.001249969E-1,-1.575749964E-1,-1.733874977E-1
2.236808899E0,-3.576374948E-1,-1.479499936E-1,-2.032250017E-1
2.239311435E0,-3.172124922E-1,-1.310375035E-1,-2.255000025E-1
2.241814125E0,-2.767874897E-1,-1.128875017E-1,-2.532750070E-1
2.244316665E0,-2.363625020E-1,-1.065625027E-1,-2.820124924E-1
2.246819127E0,-1.979999989E-1,-1.065625027E-1,-3.042874932E-1
2.249321798E0,-1.544124931E-1,-1.043625027E-1,-3.330250084E-1
2.251824339E0,-1.149500012E-1,-1.000999957E-1,-3.564000130E-1
2.254327029E0,-7.136250287E-2,-8.841250092E-2,-3.799124956E-1
2.256829569E0,-2.667500079E-2,-7.988750190E-2,-3.958624899E-1
2.259332040E0,1.801249944E-2,-6.929999590E-2,-4.053499997E-1
2.261834730E0,5.953750014E-2,-6.187500060E-2,-4.160749912E-1
2.264337271E0,9.996250272E-2,-5.224999785E-2,-4.340874851E-1
2.266839961E0,1.403875053E-1,-4.578749835E-2,-4.511374831E-1
2.269342416E0,1.808124930E-1,-4.908749834E-2,-4.650250077E-1
2.271844952E0,2.171124965E-1,-6.077500060E-2,-4.820750058E-1
2.274347644E0,2.542375028E-1,-7.136250287E-2,-5.000874996E-1
2.276850185E0,2.905375063E-1,-7.988750190E-2,-5.128750205E-1
2.279352646E0,3.255999982E-1,-8.524999768E-2,-5.288249850E-1
2.281855351E0,3.554374874E-1,-8.841250092E-2,-5.427125096E-1
2.284357891E0,3.851374984E-1,-9.157499671E-2,-5.533000231E-1
2.286860582E0,4.107125103E-1,-9.803749621E-2,-5.640249848E-1
2.289363045E0,4.331249893E-1,-1.023000032E-1,-5.757125020E-1
2.291865587E0,4.468750060E-1,-1.097249985E-1,-5.820375085E-1
2.294368279E0,4.618625045E-1,-1.150875017E-1,-5.916625261E-1
2.296870819E0,4.713499844E-1,-1.203124970E-1,-5.959249735E-1
2.299373281E0,4.778124988E-1,-1.267749965E-1,-6.001874804E-1
2.301875966E0,4.820750058E-1,-1.267749965E-1,-6.022499800E-1
2.304378507E0,4.830375016E-1,-1.234750003E-1,-6.150375009E-1
2.306881197E0,4.789125025E-1,-1.150875017E-1,-6.204000115E-1
2.309383661E0,4.703874886E-1,-1.054624990E-1,-6.256250143E-1
2.311886418E0,4.542999864E-1,-1.000999957E-1,-6.320874691E-1
2.314388881E0,4.362874925E-1,-9.473749995E-2,-6.341499686E-1
2.316891420E0,4.203374982E-1,-7.452499866E-2,-6.363499761E-1
2.319394110E0,3.936625123E-1,-5.761250108E-2,-6.352499723E-1
2.321896651E0,3.691875041E-1,-3.739999980E-2,-6.341499686E-1
2.324399131E0,3.404499888E-1,-1.388750039E-2,-6.309875250E-1
2.326901821E0,3.064875007E-1,1.154999994E-2,-6.224625111E-1
2.329404362E0,2.703250051E-1,3.506249934E-2,-6.193000078E-1
2.331907052E0,2.297624946E-1,5.417500064E-2,-6.118749976E-1
2.334409536E0,1.893374920E-1,7.755000144E-2,-6.054124832E-1
2.336912072E0,1.563374996E-1,1.179749966E-1,-6.267250180E-1
2.339414765E0,1.340624988E-1,1.967625022E-1,-6.938250065E-1
2.341917305E0,1.116499975E-1,2.851749957E-1,-8.045125008E-1
2.344419767E0,8.195000142E-2,3.510375023E-1,-9.343125224E-1
2.346922457E0,4.675000161E-2,3.979249895E-1,-1.064112544E0
2.349424997E0,1.374999993E-2,4.320249856E-1,-1.168475032E0
2.351927688E0,-3.299999982E-3,4.628250003E-1,-1.236537457E0
2.354430151E0,-1.278750040E-2,4.776749909E-1,-1.282325029E0
2.356932683E0,-1.704999991E-2,4.830375016E-1,-1.331274986E0
2.359435375E0,-2.131249942E-2,4.883999825E-1,-1.388749957E0
2.361937915E0,-2.983750030E-2,4.841375053E-1,-1.450487494E0
2.364440377E0,-4.688749835E-2,4.639250040E-1,-1.506862521E0
2.366943067E0,-6.916250288E-2,4.340874851E-1,-1.551550031E0
2.369445608E0,-8.841250092E-2,4.053499997E-1,-1.581387520E0
2.371948298E0,-9.790000319E-2,3.999874890E-1,-1.603662491E0
2.374450762E0,-9.473749995E-2,4.203374982E-1,-1.621812463E0
2.376953529E0,-9.363749623E-2,4.394499958E-1,-1.642024994E0
2.379455976E0,-9.899999946E-2,4.437125027E-1,-1.655912519E0
2.381958515E0,-1.075249985E-1,4.266625047E-1,-1.661137462E0
2.384461205E0,-1.203124970E-1,3.936625123E-1,-1.663337469E0
2.386963746E0,-1.351625025E-1,3.458124995E-1,-1.660037518E0
2.389466231E0,-1.553750038E-1,2.946625054E-1,-1.647387505E0
2.391968921E0,-1.746249944E-1,2.414499968E-1,-1.630337477E0
2.394471462E0,-1.958000064E-1,1.967625022E-1,-1.609025002E0
2.396974152E0,-2.096875012E-1,1.585374922E-1,-1.579187512E0
2.399476621E0,-2.193125039E-1,1.264999956E-1,-1.539862514E0
2.401979157E0,-2.245374918E-1,1.010624990E-1,-1.492974997E0
2.404481850E0,-2.278375030E-1,8.401250094E-2,-1.450487494E0
2.406984390E0,-2.287999988E-1,7.122500241E-2,-1.406762481E0
2.409486867E0,-2.267374992E-1,5.843750015E-2,-1.362074971E0
2.411989557E0,-2.235749960E-1,4.138749838E-2,-1.322749972E0
2.414492097E0,-2.267374992E-1,1.691249944E-2,-1.285487533E0
2.416994788E0,-2.245374918E-1,-6.462499965E-3,-1.255650043E0
2.419497251E0,-2.224749923E-1,-2.351249941E-2,-1.224849939E0
2.422000032E0,-2.224749923E-1,-4.372499883E-2,-1.200374961E0
2.424502496E0,-2.161500007E-1,-6.077500060E-2,-1.177000046E0
2.427005034E0,-2.076250017E-1,-6.929999590E-2,-1.141800046E0
2.429507496E0,-1.968999952E-1,-8.098749816E-2,-1.097112536E0
2.432010167E0,-1.798499972E-1,-9.061250091E-2,-1.054625034E0
2.434512708E0,-1.522125006E-1,-9.377499670E-2,-1.009937525E0
2.437015398E0,-1.266375035E-1,-9.473749995E-2,-9.693750143E-1
2.439517939E0,-1.021625027E-1,-1.054624990E-1,-9.363750219E-1
2.442020414E0,-7.878749818E-2,-1.310375035E-1,-9.066749811E-1
2.444523104E0,-6.077500060E-2,-1.564749926E-1,-8.725749850E-1
2.447025645E0,-5.115000159E-2,-1.799875051E-1,-8.449375033E-1
2.449528335E0,-3.946249932E-2,-2.107875049E-1,-8.182625175E-1
2.452030881E0,-3.519999981E-2,-2.426874936E-1,-7.906249762E-1
2.454533342E0,-3.519999981E-2,-2.831124961E-1,-7.607874870E-1
2.457036033E0,-3.409999982E-2,-3.257375062E-1,-7.353500128E-1
2.459538573E0,-3.616249934E-2,-3.641000092E-1,-7.108749747E-1
2.462041268E0,-4.262499884E-2,-3.959999979E-1,-6.884624958E-1
2.464543732E0,-4.688749835E-2,-4.258374870E-1,-6.693499684E-1
2.467046268E0,-5.651250109E-2,-4.555374980E-1,-6.480374932E-1
2.469548961E0,-7.026249915E-2,-4.885374904E-1,-6.267250180E-1
2.472051501E0,-8.731249720E-2,-5.141124725E-1,-6.022499800E-1
2.474553963E0,-1.117874980E-1,-5.311625004E-1,-5.820375085E-1
2.477056653E0,-1.342000067E-1,-5.449125171E-1,-5.640249848E-1
2.479559193E0,-1.596374959E-1,-5.608624816E-1,-5.458750129E-1
2.482061903E0,-1.905750036E-1,-5.769500136E-1,-5.277249813E-1
2.484564366E0,-2.193125039E-1,-5.981249809E-1,-5.193374753E-1
2.487066903E0,-2.575374842E-1,-6.131125093E-1,-5.117750168E-1
2.489569595E0,-2.958999872E-1,-6.258999705E-1,-5.022875071E-1
2.492072131E0,-3.289000094E-1,-6.375874877E-1,-4.989874959E-1
2.494574592E0,-3.619000018E-1,-6.428124905E-1,-4.980250001E-1
2.497077282E0,-3.948999941E-1,-6.503750086E-1,-5.000874996E-1
2.499579823E0,-4.278999865E-1,-6.589000225E-1,-4.989874959E-1
2.502082494E0,-4.544374943E-1,-6.683874726E-1,-4.958249927E-1
2.504584958E0,-4.800125062E-1,-6.822749972E-1,-4.937624931E-1
2.507087725E0,-4.981625080E-1,-7.002875209E-1,-4.937624931E-1
2.509590189E0,-5.087500215E-1,-7.215999961E-1,-4.894999862E-1
2.512092717E0,-5.150749683E-1,-7.449749708E-1,-4.883999825E-1
2.514595179E0,-5.193374753E-1,-7.556999922E-1,-4.798749983E-1
2.517097946E0,-5.150749683E-1,-7.662875056E-1,-4.681875110E-1
2.519600409E0,-5.098500252E-1,-7.790749669E-1,-4.533374906E-1
2.522103134E0,-4.916999936E-1,-7.844374776E-1,-4.383499920E-1
2.524605674E0,-4.640625119E-1,-7.716500163E-1,-4.266625047E-1
2.527108136E0,-4.278999865E-1,-7.482749820E-1,-4.160749912E-1
2.529610826E0,-3.917374909E-1,-7.195374966E-1,-4.096125066E-1
2.532113337E0,-3.639625013E-1,-6.886000037E-1,-4.010874927E-1
2.534616028E0,-3.427875042E-1,-6.705874801E-1,-4.032875001E-1
2.537118568E0,-3.203749955E-1,-6.758124828E-1,-4.181374907E-1
2.539621030E0,-2.947999835E-1,-6.800749898E-1,-4.373874962E-1
2.542123720E0,-2.734875083E-1,-6.780124903E-1,-4.511374831E-1
2.544626261E0,-2.660624981E-1,-6.811749935E-1,-4.702500105E-1
2.547128951E0,-2.671625018E-1,-6.917625070E-1,-4.915624857E-1
2.549631414E0,-2.725250125E-1,-7.088124752E-1,-5.171374679E-1
2.552133970E0,-2.884750068E-1,-7.332875133E-1,-5.458750129E-1
2.554636662E0,-3.064875007E-1,-7.492374778E-1,-5.735124946E-1
2.557139203E0,-3.257375062E-1,-7.534999847E-1,-5.970249772E-1
2.559641664E0,-3.427875042E-1,-7.577624917E-1,-6.161375046E-1
2.562144365E0,-3.587374985E-1,-7.651875019E-1,-6.341499686E-1
2.564646905E0,-3.841750026E-1,-7.844374776E-1,-6.374499798E-1
2.567149595E0,-4.119499922E-1,-8.078125119E-1,-6.320874691E-1
2.569652136E0,-4.438500106E-1,-8.226624727E-1,-6.129750013E-1
2.572154587E0,-4.703874886E-1,-8.365499973E-1,-5.863000154E-1
2.574657278E0,-4.981625080E-1,-8.461750150E-1,-5.522000194E-1
2.577159818E0,-5.235999823E-1,-8.589624763E-1,-5.128750205E-1
2.579662508E0,-5.523374677E-1,-8.886625171E-1,-4.681875110E-1
2.582164977E0,-5.704874992E-1,-9.174000025E-1,-4.118124843E-1
2.584667513E0,-5.885000229E-1,-9.450374842E-1,-3.469125032E-1
2.587170206E0,-6.087124944E-1,-9.780374765E-1,-2.777499855E-1
2.589672669E0,-6.247999668E-1,-1.024924994E0,-2.043250054E-1
2.592175436E0,-6.459749937E-1,-1.074975014E0,-1.318625063E-1
2.594677938E0,-6.641250253E-1,-1.127087474E0,-5.527500063E-2
2.597180477E0,-6.800749898E-1,-1.170675039E0,2.034999989E-2
2.599683167E0,-6.949250102E-1,-1.212200046E0,9.583749622E-2
2.602185707E0,-7.162374854E-1,-1.273937464E0,1.618375033E-1
2.604688169E0,-7.438749671E-1,-1.361250043E0,2.139499933E-1
2.607190859E0,-7.694500089E-1,-1.455987453E0,2.523125112E-1
2.609693400E0,-7.950249910E-1,-1.567637444E0,2.862749994E-1
2.612196090E0,-8.237624764E-1,-1.686849952E0,3.044250011E-1
2.614698544E0,-8.503000140E-1,-1.804962516E0,3.203749955E-1
2.617201081E0,-8.790374994E-1,-1.927337527E0,3.203749955E-1
2.619703773E0,-9.057124853E-1,-2.039124966E0,3.161124885E-1
2.622206314E0,-9.279875159E-1,-2.128499985E0,3.107500076E-1
2.624708775E0,-9.418749809E-1,-2.203025103E0,3.033249974E-1
2.627211475E0,-9.450374842E-1,-2.261462450E0,3.023625016E-1
2.629714015E0,-9.387124777E-1,-2.307250023E0,3.001624942E-1
2.632216705E0,-9.279875159E-1,-2.330762386E0,2.990624905E-1
2.634719169E0,-9.110749960E-1,-2.324300051E0,3.023625016E-1
2.637221720E0,-8.833000064E-1,-2.287037373E0,3.044250011E-1
2.639724413E0,-8.599249721E-1,-2.242350101E0,3.012624979E-1
2.642226953E0,-8.417750001E-1,-2.204124928E0,2.958999872E-1
2.644729415E0,-8.343499899E-1,-2.185975075E0,2.927374840E-1
2.647232119E0,-8.311874866E-1,-2.187074900E0,2.767874897E-1
2.649734659E0,-8.333874941E-1,-2.187074900E0,2.523125112E-1
2.652237350E0,-8.237624764E-1,-2.166862488E0,2.363625020E-1
2.654739890E0,-8.003875017E-1,-2.138124943E0,2.341624945E-1
2.657242352E0,-7.662875056E-1,-2.104024887E0,2.373249978E-1
2.659745042E0,-7.312250137E-1,-2.080650091E0,2.448875010E-1
2.662247583E0,-6.971250176E-1,-2.069925070E0,2.575374842E-1
2.664750273E0,-6.758124828E-1,-2.067862511E0,2.651000023E-1
2.667252818E0,-6.609625220E-1,-2.064699888E0,2.736249864E-1
2.669755280E0,-6.459749937E-1,-2.058237553E0,2.810499966E-1
2.672257970E0,-6.322249770E-1,-2.046550035E0,2.905375063E-1
2.674760511E0,-6.215000153E-1,-2.047650099E0,3.001624942E-1
2.677263196E0,-6.162750125E-1,-2.061399937E0,3.064875007E-1
2.679765660E0,-6.087124944E-1,-2.072124958E0,3.118500113E-1
2.682268196E0,-5.992249846E-1,-2.053012371E0,3.246375024E-1
2.684770888E0,-5.938624740E-1,-2.033762455E0,3.385249972E-1
2.687273429E0,-5.885000229E-1,-2.007225037E0,3.522749841E-1
2.689775895E0,-5.799750090E-1,-1.958274961E0,3.661625087E-1
2.692278586E0,-5.693874955E-1,-1.895437479E0,3.704249859E-1
2.694781126E0,-5.576999784E-1,-1.809224963E0,3.757874966E-1
2.697283816E0,-5.352874994E-1,-1.701699972E0,3.810124993E-1
2.699786280E0,-5.098500252E-1,-1.572999954E0,3.821125031E-1
2.702288816E0,-4.896374941E-1,-1.432474971E0,3.800500035E-1
2.704791509E0,-4.778124988E-1,-1.290987492E0,3.841750026E-1
2.707294049E0,-4.683249891E-1,-1.145237446E0,3.917374909E-1
2.709796516E0,-4.618625045E-1,-1.008975029E0,3.917374909E-1
2.712299206E0,-4.609000087E-1,-8.834375143E-1,3.906374872E-1
2.714801747E0,-4.629625082E-1,-7.748125196E-1,3.895374835E-1
2.717304437E0,-4.757499993E-1,-6.854375005E-1,3.863750100E-1
2.719806900E0,-4.896374941E-1,-6.173750162E-1,3.832125068E-1
2.722309644E0,-5.065500140E-1,-5.641624928E-1,3.810124993E-1
2.724812107E0,-5.226374865E-1,-5.311625004E-1,3.810124993E-1
2.727314646E0,-5.460125208E-1,-5.194749832E-1,3.874749839E-1
2.729817336E0,-5.673249960E-1,-5.226374865E-1,3.937999904E-1
2.732319856E0,-5.853375196E-1,-5.385875106E-1,4.012250006E-1
2.734822318E0,-5.960624814E-1,-5.693874955E-1,4.086500108E-1
2.737325008E0,-6.045874953E-1,-6.151750088E-1,4.247374833E-1
2.739827549E0,-6.098124981E-1,-6.705874801E-1,4.406875074E-1
2.742330239E0,-6.109125018E-1,-7.215999961E-1,4.544374943E-1
2.744832703E0,-5.981249809E-1,-7.694500089E-1,4.629625082E-1
2.747335239E0,-5.768125057E-1,-8.131750226E-1,4.672249854E-1
2.749837931E0,-5.545374751E-1,-8.408125043E-1,4.672249854E-1
2.752340472E0,-5.289624929E-1,-8.567624688E-1,4.618625045E-1
2.754842938E0,-5.002250075E-1,-8.556625247E-1,4.449499846E-1
2.757345629E0,-4.714874923E-1,-8.428750038E-1,4.236375093E-1
2.759848169E0,-4.459125102E-1,-8.194999695E-1,4.034250081E-1
2.762350860E0,-4.257000089E-1,-7.864999771E-1,3.821125031E-1
2.764853284E0,-4.034250081E-1,-7.407125235E-1,3.565374911E-1
2.767355821E0,-3.799124956E-1,-6.758124828E-1,3.289000094E-1
2.769858513E0,-3.533749878E-1,-5.992249846E-1,2.927374840E-1
2.772361053E0,-3.235374987E-1,-5.076500177E-1,2.532750070E-1
2.774863515E0,-2.884750068E-1,-3.971000016E-1,2.139499933E-1
2.777366210E0,-2.501125038E-1,-2.651000023E-1,1.894749999E-1
2.779868751E0,-2.128500044E-1,-1.299374998E-1,1.777874976E-1
2.782371441E0,-1.809500009E-1,-1.072499994E-2,1.735250056E-1
2.784873981E0,-1.575749964E-1,8.511249721E-2,1.841125041E-1
2.787376400E0,-1.331000030E-1,1.627999991E-1,1.863124967E-1
2.789879090E0,-1.106875017E-1,2.308624983E-1,1.831499934E-1
2.792381631E0,-9.047500044E-2,2.894375026E-1,1.671999991E-1
2.794884092E0,-6.489999592E-2,3.350875080E-1,1.427250057E-1
2.797386842E0,-3.299999982E-2,3.680875003E-1,1.086250022E-1
2.799889305E0,-6.462499965E-3,3.851374984E-1,7.136250287E-2
2.802391995E0,2.021249942E-2,3.883000016E-1,3.519999981E-2
2.804894536E0,4.784999788E-2,3.777124882E-1,-7.424999960E-3
2.807397216E0,6.270000339E-2,3.489750028E-1,-5.953750014E-2
2.809899680E0,7.768750191E-2,3.159750104E-1,-1.127500013E-1
2.812402216E0,9.569999576E-2,2.840749919E-1,-1.702249944E-1
2.814904908E0,1.053249985E-1,2.521750033E-1,-2.255000025E-1
2.817407449E0,1.095874980E-1,2.191749960E-1,-2.787125111E-1
2.819909911E0,1.127500013E-1,1.861750036E-1,-3.330250084E-1
2.822412601E0,1.073874980E-1,1.552374959E-1,-3.947624862E-1
2.824915141E0,9.790000319E-2,1.244374961E-1,-4.575999975E-1
2.827417832E0,9.363749623E-2,1.095874980E-1,-5.245624781E-1
2.829920276E0,9.790000319E-2,1.062875018E-1,-5.777750015E-1
2.832422813E0,1.021625027E-1,1.020250022E-1,-6.161375046E-1
2.834925505E0,1.021625027E-1,9.569999576E-2,-6.395124793E-1
2.837428045E0,9.790000319E-2,8.607500046E-2,-6.543624997E-1
2.839930507E0,9.679999948E-2,7.438749820E-2,-6.608250141E-1
2.842433211E0,9.143749624E-2,6.270000339E-2,-6.586250067E-1
2.844935752E0,8.401250094E-2,5.417500064E-2,-6.491374969E-1
2.847438442E0,8.195000142E-2,4.991250113E-2,-6.320874691E-1
2.849940906E0,7.658749819E-2,4.248749837E-2,-6.118749976E-1
2.852443447E0,7.232499868E-2,3.189999983E-2,-5.863000154E-1
2.854946139E0,7.342500240E-2,2.007500082E-2,-5.543999672E-1
2.857448680E0,7.012499869E-2,9.487500414E-3,-5.202999711E-1
2.859951141E0,7.122500241E-2,2.062499989E-3,-4.873000085E-1
2.862453832E0,7.548750192E-2,-4.399999976E-3,-4.448125064E-1
2.864956372E0,7.548750192E-2,-5.362499971E-3,-4.053499997E-1
2.867459062E0,7.548750192E-2,-1.099999994E-3,-3.617624938E-1
2.869961603E0,7.438749820E-2,8.387500420E-3,-3.244999945E-1
2.872464092E0,7.122500241E-2,2.227500081E-2,-2.862749994E-1
2.874966783E0,6.916250288E-2,4.028749838E-2,-2.468124926E-1
2.877469323E0,5.953750014E-2,6.063750014E-2,-2.117500007E-1
2.879972014E0,4.784999788E-2,7.658749819E-2,-1.776500046E-1
2.882474564E0,2.653750032E-2,8.084999770E-2,-1.489125043E-1
2.884977026E0,3.162499983E-3,7.864999771E-2,-1.212750003E-1
2.887479716E0,-1.814999990E-2,7.328750193E-2,-9.363749623E-2
2.889982256E0,-3.836249933E-2,6.476250291E-2,-6.063750014E-2
2.892484957E0,-5.747500062E-2,5.527500063E-2,-3.189999983E-2
2.894987420E0,-7.136250287E-2,4.675000161E-2,-7.424999960E-3
2.897489957E0,-8.621250093E-2,3.822499886E-2,1.072499994E-2
2.899992649E0,-9.693749994E-2,3.286249936E-2,2.873750031E-2
2.902495189E0,-1.011999995E-1,3.616249934E-2,4.895000160E-2
2.904997651E0,-1.064250022E-1,3.189999983E-2,6.173750013E-2
2.907500341E0,-1.054624990E-1,3.396249935E-2,7.246249914E-2
2.910002882E0,-1.054624990E-1,3.932499886E-2,8.304999769E-2
2.912505557E0,-1.054624990E-1,4.358749837E-2,9.377499670E-2
2.915008021E0,-1.054624990E-1,4.675000161E-2,1.043625027E-1
2.917510557E0,-1.043625027E-1,4.564999789E-2,1.139874980E-1
2.920013249E0,-1.117874980E-1,4.784999788E-2,1.192125008E-1
2.922515805E0,-1.106875017E-1,4.455000162E-2,1.234750003E-1
2.925018266E0,-1.149500012E-1,3.712499887E-2,1.308999956E-1
2.927520957E0,-1.256749928E-1,3.079999983E-2,1.373624951E-1
2.930023497E0,-1.299374998E-1,1.801249944E-2,1.405249983E-1
2.932526212E0,-1.394249946E-1,4.124999978E-3,1.458874941E-1
2.935028675E0,-1.447875053E-1,-7.562499959E-3,1.553750038E-1
2.937531212E0,-1.490499973E-1,-6.462499965E-3,1.596374959E-1
2.940033904E0,-1.479499936E-1,-3.299999982E-3,1.660999954E-1
2.942536463E0,-1.436875015E-1,1.058750041E-2,1.735250056E-1
2.945038925E0,-1.405249983E-1,2.227500081E-2,1.766874939E-1
2.947541692E0,-1.394249946E-1,4.358749837E-2,1.841125041E-1
2.950044156E0,-1.288374960E-1,6.586249918E-2,1.905750036E-1
2.952546846E0,-1.245749965E-1,8.717499673E-2,1.959374994E-1
2.955049358E0,-1.171500012E-1,1.127500013E-1,1.968999952E-1
2.957551894E0,-1.117874980E-1,1.340624988E-1,1.991000026E-1
2.960054586E0,-1.097249985E-1,1.509750038E-1,2.022625059E-1
2.962557127E0,-1.054624990E-1,1.616999954E-1,2.065249979E-1
2.965059826E0,-1.086250022E-1,1.606000066E-1,2.043250054E-1
2.967562290E0,-1.160499975E-1,1.414874941E-1,1.979999989E-1
2.970064826E0,-1.256749928E-1,1.201749966E-1,1.937374920E-1
2.972567518E0,-1.319999993E-1,9.886249900E-2,1.883749962E-1
2.975070059E0,-1.351625025E-1,8.291249722E-2,1.777874976E-1
2.977572768E0,-1.384624988E-1,7.864999771E-2,1.660999954E-1
2.980075232E0,-1.373624951E-1,8.607500046E-2,1.511124969E-1
2.982577768E0,-1.351625025E-1,1.020250022E-1,1.351625025E-1
2.985080461E0,-1.342000067E-1,1.255374998E-1,1.214125007E-1
2.987582973E0,-1.288374960E-1,1.542750001E-1,1.021625027E-1
2.990085435E0,-1.299374998E-1,1.850749999E-1,8.841250092E-2
2.992588125E0,-1.277374923E-1,2.201374918E-1,7.672499865E-2
2.995090665E0,-1.223749965E-1,2.553375065E-1,6.503749639E-2
2.997593370E0,-1.203124970E-1,2.840749919E-1,5.004999787E-2
3.000095833E0,-1.086250022E-1,3.139125109E-1,3.299999982E-2
3.002598370E0,-7.988750190E-2,3.585999906E-1,-4.124999978E-3
3.005101062E0,-4.262499884E-2,4.064500034E-1,-9.363749623E-2
3.007603578E0,-1.388750039E-2,4.489375055E-1,-2.479124963E-1
3.010106040E0,1.374999993E-2,4.873000085E-1,-4.542999864E-1
3.012608730E0,5.417500064E-2,5.224999785E-1,-6.916249990E-1
3.015111271E0,1.106875017E-1,5.373499990E-1,-9.448999763E-1
3.017613971E0,1.627999991E-1,5.160375237E-1,-1.128049970E0
3.020116435E0,2.063875049E-1,4.564999938E-1,-1.231174946E0
3.022618971E0,2.287999988E-1,3.595624864E-1,-1.288650036E0
3.025121663E0,2.095499933E-1,2.319625020E-1,-1.320549965E0
3.027624213E0,1.596374959E-1,8.827500045E-2,-1.333337545E0
3.030126674E0,8.937499672E-2,-5.541250110E-2,-1.325912476E0
3.032629442E0,1.264999993E-2,-1.916749924E-1,-1.302537441E0
3.035131905E0,-7.026249915E-2,-3.151499927E-1,-1.269537449E0
3.037634586E0,-1.533125043E-1,-4.289999902E-1,-1.229112506E0
3.040137127E0,-2.245374918E-1,-5.268999934E-1,-1.190750003E0
3.042639817E0,-2.810499966E-1,-6.056874990E-1,-1.147162437E0
3.045142281E0,-3.352249861E-1,-6.715499759E-1,-1.092849970E0
3.047644801E0,-3.778499961E-1,-7.215999961E-1,-1.029049993E0
3.050147494E0,-4.065875113E-1,-7.492374778E-1,-9.545249939E-1
3.052650034E0,-4.299624860E-1,-7.651875019E-1,-8.768374920E-1
3.055152496E0,-4.501749873E-1,-7.662875056E-1,-7.959874868E-1
3.057655177E0,-4.640625119E-1,-7.503374815E-1,-7.151374817E-1
3.060157717E0,-4.757499993E-1,-7.258625031E-1,-6.331874728E-1
3.062660408E0,-4.842749834E-1,-6.843374968E-1,-5.447750092E-1
3.065162871E0,-5.055875182E-1,-6.418499947E-1,-4.650250077E-1
3.067665441E0,-5.278624892E-1,-5.886374712E-1,-3.894000053E-1
3.070168133E0,-5.471125245E-1,-5.332249999E-1,-3.213374913E-1
3.072670673E0,-5.673249960E-1,-4.629625082E-1,-2.595999837E-1
3.075173135E0,-5.832750201E-1,-3.832125068E-1,-2.095499933E-1
3.077675821E0,-5.992249846E-1,-2.916375101E-1,-1.627999991E-1
3.080178362E0,-6.120125055E-1,-1.979999989E-1,-1.212750003E-1
3.082681052E0,-6.290624738E-1,-1.023000032E-1,-8.181250095E-2
3.085183516E0,-6.513375044E-1,-1.072499994E-2,-5.101250112E-2
3.087686047E0,-6.769124866E-1,7.012499869E-2,-3.616249934E-2
3.090188739E0,-7.067499757E-1,1.424500048E-1,-2.873750031E-2
3.092691280E0,-7.321875095E-1,2.063875049E-1,-2.873750031E-2
3.095193970E0,-7.599624991E-1,2.595999837E-1,-4.564999789E-2
3.097696424E0,-7.875999808E-1,3.063499928E-1,-6.916250288E-2
3.100198960E0,-8.067125082E-1,3.372874856E-1,-1.021625027E-1
3.102701653E0,-8.215624690E-1,3.510375023E-1,-1.403875053E-1
3.105204193E0,-8.386124969E-1,3.489750028E-1,-1.808124930E-1
3.107706859E0,-8.482375145E-1,3.341250122E-1,-2.319625020E-1
3.110209323E0,-8.556625247E-1,3.117125034E-1,-2.903999984E-1
3.112711859E0,-8.556625247E-1,2.701874971E-1,-3.500750065E-1
3.115214323E0,-8.471375108E-1,2.127124965E-1,-4.160749912E-1
3.117717081E0,-8.354499936E-1,1.446499974E-1,-4.883999825E-1
3.120219545E0,-8.163374662E-1,5.637500063E-2,-5.649874806E-1
3.122722235E0,-7.961249948E-1,-4.798749834E-2,-6.500999928E-1
3.125224775E0,-7.683500051E-1,-1.544124931E-1,-7.416750193E-1
3.127727437E0,-7.332875133E-1,-2.704625130E-1,-8.332499862E-1
3.130229900E0,-6.917625070E-1,-3.991625011E-1,-9.246875048E-1
3.132732437E0,-6.459749937E-1,-5.257999897E-1,-1.003474951E0
3.135235129E0,-5.875374675E-1,-6.470749974E-1,-1.070574999E0
3.137737660E0,-5.257999897E-1,-7.631250024E-1,-1.130112529E0
3.140240121E0,-4.672249854E-1,-8.791750073E-1,-1.195012450E0
3.142742811E0,-4.162124991E-1,-9.822999835E-1,-1.264174938E0
3.145245352E0,-3.810124993E-1,-1.072775006E0,-1.337599993E0
3.147748042E0,-3.619000018E-1,-1.156924963E0,-1.404700041E0
3.150250506E0,-3.470500112E-1,-1.229249954E0,-1.459012508E0
3.152753042E0,-3.374249935E-1,-1.287824988E0,-1.514287472E0
3.155255735E0,-3.385249972E-1,-1.335675001E0,-1.565437436E0
3.157758280E0,-3.394874930E-1,-1.372937441E0,-1.619612455E0
3.160260742E0,-3.437500000E-1,-1.405937433E0,-1.676125050E0
3.162763432E0,-3.491125107E-1,-1.429312468E0,-1.738824964E0
3.165265972E0,-3.639625013E-1,-1.449524999E0,-1.802762508E0
3.167768424E0,-3.746874928E-1,-1.458050013E0,-1.873987436E0
3.170271191E0,-3.767499924E-1,-1.449524999E0,-1.946312547E0
3.172773655E0,-3.778499961E-1,-1.447462440E0,-2.010250092E0
3.175276345E0,-3.661625087E-1,-1.436737537E0,-2.070887566E0
3.177778885E0,-3.427875042E-1,-1.413362503E0,-2.126162529E0
3.180281543E0,-3.161124885E-1,-1.385725021E0,-2.180474997E0
3.182784006E0,-2.990624905E-1,-1.379262447E0,-2.234787464E0
3.185286543E0,-2.799499929E-1,-1.371837497E0,-2.280575037E0
3.187789235E0,-2.554749846E-1,-1.353824973E0,-2.325262547E0
3.190291776E0,-2.204124928E-1,-1.330312490E0,-2.367749929E0
3.192794203E0,-1.852124929E-1,-1.309000015E0,-2.400749922E0
3.195296893E0,-1.501500010E-1,-1.285624981E0,-2.420962572E0
3.197799434E0,-1.277374923E-1,-1.264312506E0,-2.431687593E0
3.200302124E0,-1.181124970E-1,-1.232412457E0,-2.435950041E0
3.202804569E0,-1.000999957E-1,-1.188825011E0,-2.443374872E0
3.205307105E0,-9.473749995E-2,-1.139874935E0,-2.455062389E0
3.207809798E0,-1.021625027E-1,-1.082399964E0,-2.463587523E0
3.210312338E0,-1.160499975E-1,-1.019562483E0,-2.472112417E0
3.212814800E0,-1.447875053E-1,-9.589250088E-1,-2.476375103E0
3.215317490E0,-1.841125041E-1,-8.982874751E-1,-2.475275040E0
3.217820030E0,-2.352624983E-1,-8.354499936E-1,-2.466749907E0
3.220322721E0,-2.756874859E-1,-7.525374889E-1,-2.450799942E0
3.222825184E0,-3.097875118E-1,-6.609625220E-1,-2.431687593E0
3.225327721E0,-3.459500074E-1,-5.619624853E-1,-2.411474943E0
3.227830422E0,-3.841750026E-1,-4.609000087E-1,-2.387962580E0
3.230332962E0,-4.225375056E-1,-3.607999980E-1,-2.367749929E0
3.232835424E0,-4.629625082E-1,-2.619374990E-1,-2.347537518E0
3.235338114E0,-5.024250150E-1,-1.649999917E-1,-2.332687378E0
3.237840636E0,-5.480750203E-1,-7.136250287E-2,-2.314537525E0
3.240343326E0,-6.003249884E-1,1.374999993E-2,-2.290062428E0
3.242845867E0,-6.556000113E-1,9.886249900E-2,-2.262424946E0
3.245348328E0,-7.056499720E-1,1.839749962E-1,-2.241112471E0
3.247851028E0,-7.534999847E-1,2.744500041E-1,-2.217737436E0
3.250353569E0,-7.961249948E-1,3.680875003E-1,-2.192162514E0
3.252856259E0,-8.417750001E-1,4.531999826E-1,-2.168787479E0
3.255358800E0,-8.875625134E-1,5.405125022E-1,-2.144312382E0
3.257861265E0,-9.312874675E-1,6.204000115E-1,-2.107049942E0
3.260363955E0,-9.737749696E-1,6.927250028E-1,-2.064562559E0
3.262866496E0,-1.014199972E0,7.724750042E-1,-2.027299881E0
3.265369186E0,-1.045137525E0,8.481000066E-1,-1.982612491E0
3.267871641E0,-1.066450000E0,9.235875010E-1,-1.938887477E0
3.270374177E0,-1.080199957E0,9.927499890E-1,-1.892137527E0
3.272876870E0,-1.090924978E0,1.062049985E0,-1.836724997E0
3.275379410E0,-1.098350048E0,1.119387507E0,-1.774024963E0
3.277881872E0,-1.100412488E0,1.168475032E0,-1.711187482E0
3.280384543E0,-1.096150041E0,1.215224981E0,-1.640925050E0
3.282887083E0,-1.092987537E0,1.249325037E0,-1.567499995E0
3.285389774E0,-1.096150041E0,1.274762511E0,-1.497237444E0
3.287892237E0,-1.103574991E0,1.299374938E0,-1.428074956E0
3.290394774E0,-1.112100005E0,1.319587469E0,-1.358912468E0
3.292897466E0,-1.115399957E0,1.340762496E0,-1.286587477E0
3.295400006E0,-1.117462516E0,1.360975027E0,-1.218387485E0
3.297902468E0,-1.113199949E0,1.383387446E0,-1.146062493E0
3.300405191E0,-1.102612495E0,1.403599977E0,-1.065212488E0
3.302907732E0,-1.094087481E0,1.421749949E0,-9.853249788E-1
3.305410422E0,-1.089825034E0,1.429175019E0,-8.992499709E-1
3.307912886E0,-1.087625027E0,1.429175019E0,-8.173000216E-1
3.310415648E0,-1.084462523E0,1.432337523E0,-7.310875058E-1
3.312918111E0,-1.077037454E0,1.432337523E0,-6.406124830E-1
3.315420650E0,-1.075937510E0,1.426012516E0,-5.512375236E-1
3.317923340E0,-1.069612503E0,1.419549942E0,-4.585624933E-1
3.320425891E0,-1.063150048E0,1.401537538E0,-3.691875041E-1
3.322928352E0,-1.057924986E0,1.382287502E0,-2.787125111E-1
3.325431043E0,-1.044037461E0,1.358912468E0,-1.819124967E-1
3.327933583E0,-1.026987553E0,1.335537434E0,-9.143749624E-2
3.330436045E0,-1.009937525E0,1.307762504E0,-2.062499989E-3
3.332938725E0,-9.887624979E-1,1.271600008E0,9.157499671E-2
3.335441265E0,-9.620875120E-1,1.236537457E0,1.852124929E-1
3.337943956E0,-9.227625132E-1,1.202437520E0,2.736249864E-1
3.340446496E0,-8.758749962E-1,1.165174961E0,3.576374948E-1
3.342948992E0,-8.215624690E-1,1.126950026E0,4.310624897E-1
3.345451682E0,-7.662875056E-1,1.083225012E0,5.066875219E-1
3.347954222E0,-7.162374854E-1,1.040737510E0,5.673249960E-1
3.350456913E0,-6.715499759E-1,1.000312448E0,6.088500023E-1
3.352959400E0,-6.333249807E-1,9.587875009E-1,6.439124942E-1
3.355461937E0,-5.875374675E-1,9.215250015E-1,6.694874763E-1
3.357964629E0,-5.438125134E-1,8.938875198E-1,6.865375042E-1
3.360467170E0,-5.044875145E-1,8.714749813E-1,6.949250102E-1
3.362969664E0,-4.672249854E-1,8.373749852E-1,6.949250102E-1
3.365472354E0,-4.427500069E-1,7.991499901E-1,6.865375042E-1
3.367974895E0,-4.257000089E-1,7.661499977E-1,6.800749898E-1
3.370477585E0,-4.043875039E-1,7.385125160E-1,6.726499796E-1
3.372980131E0,-3.810124993E-1,7.140374780E-1,6.652249694E-1
3.375482592E0,-3.576374948E-1,6.905249953E-1,6.598625183E-1
3.377985283E0,-3.374249935E-1,6.693499684E-1,6.598625183E-1
3.380487823E0,-3.161124885E-1,6.480374932E-1,6.578000188E-1
3.382990508E0,-2.947999835E-1,6.267250180E-1,6.545000076E-1
3.385493049E0,-2.777499855E-1,6.128374934E-1,6.470749974E-1
3.387995510E0,-2.682625055E-1,5.968874693E-1,6.375874877E-1
3.390498201E0,-2.543750107E-1,5.809375048E-1,6.183375120E-1
3.393000640E0,-2.341624945E-1,5.714499950E-1,5.886374712E-1
3.395503407E0,-2.150499970E-1,5.714499950E-1,5.640249848E-1
3.398005871E0,-1.979999989E-1,5.735124946E-1,5.332249999E-1
3.400508409E0,-1.755875051E-1,5.831375122E-1,4.948624969E-1
3.403011100E0,-1.564749926E-1,5.926250219E-1,4.395875037E-1
3.405513640E0,-1.351625025E-1,6.085749865E-1,3.693250120E-1
3.408016102E0,-1.117874980E-1,6.309875250E-1,2.958999872E-1
3.410518792E0,-8.524999768E-2,6.575250030E-1,2.107875049E-1
3.413021333E0,-5.747500062E-2,6.884624958E-1,1.128875017E-1
3.415524033E0,-2.873750031E-2,7.171999812E-1,5.362499971E-3
3.418026496E0,-3.299999982E-3,7.501999736E-1,-1.116499975E-1
3.420529033E0,2.227500081E-2,7.863624692E-1,-2.351250052E-1
3.423031725E0,5.527500063E-2,8.140000105E-1,-3.649249971E-1
3.425534266E0,8.511249721E-2,8.416374922E-1,-4.947249889E-1
3.428036727E0,1.190750003E-1,8.703749776E-1,-6.224625111E-1
3.430539417E0,1.542750001E-1,8.948500156E-1,-7.501999736E-1
3.433041958E0,1.830125004E-1,9.118999839E-1,-8.747749925E-1
3.435544662E0,2.160124928E-1,9.257875085E-1,-9.949499965E-1
3.438047126E0,2.521750033E-1,9.332125187E-1,-1.108799934E0
3.440549662E0,2.862749994E-1,9.300500154E-1,-1.210962534E0
3.443052355E0,3.117125034E-1,9.098374844E-1,-1.300337434E0
3.445554895E0,3.352249861E-1,8.779374957E-1,-1.379124999E0
3.448057386E0,3.521375060E-1,8.299499750E-1,-1.446225047E0
3.450560076E0,3.649249971E-1,7.672500014E-1,-1.501500010E0
3.453062616E0,3.745499849E-1,6.884624958E-1,-1.548387527E0
3.455565307E0,3.851374984E-1,5.968874693E-1,-1.599400043E0
3.458067847E0,3.905000091E-1,4.989874959E-1,-1.638862491E0
3.460570304E0,3.916000128E-1,3.862375021E-1,-1.665400028E0
3.463072994E0,3.926999867E-1,2.606999874E-1,-1.687812448E0
3.465575535E0,3.916000128E-1,1.307625026E-1,-1.696337461E0
3.468078225E0,3.905000091E-1,-8.662499487E-3,-1.688774943E0
3.470580765E0,3.862375021E-1,-1.533125043E-1,-1.672824979E0
3.473083227E0,3.819749951E-1,-3.033249974E-1,-1.634600043E0
3.475585917E0,3.777124882E-1,-4.492124915E-1,-1.576025009E0
3.478088458E0,3.745499849E-1,-5.906999707E-1,-1.500537515E0
3.480591162E0,3.713875115E-1,-7.301250100E-1,-1.408962488E0
3.483093625E0,3.649249971E-1,-8.632249832E-1,-1.303637505E0
3.485596162E0,3.532375097E-1,-9.802374840E-1,-1.181262493E0
3.488098854E0,3.426499963E-1,-1.086662531E0,-1.046100020E0
3.490601381E0,3.330250084E-1,-1.179199934E0,-9.013124704E-1
3.493103842E0,3.117125034E-1,-1.255787492E0,-7.501999736E-1
3.495606533E0,2.905375063E-1,-1.320824981E0,-5.948249698E-1
3.498109073E0,2.638624907E-1,-1.360149980E0,-4.320249856E-1
3.500611773E0,2.255000025E-1,-1.364412546E0,-2.744500041E-1
3.503114237E0,1.733874977E-1,-1.330312490E0,-1.255374998E-1
3.505617004E0,1.106875017E-1,-1.251662493E0,9.624999948E-3
3.508119468E0,3.079999983E-2,-1.135612488E0,1.245749965E-1
3.510622006E0,-5.857500061E-2,-9.833999872E-1,2.139499933E-1
3.513124468E0,-1.575749964E-1,-7.939249873E-1,2.820124924E-1
3.515627235E0,-2.671625018E-1,-5.812125206E-1,3.331624866E-1
3.518129698E0,-3.756499887E-1,-3.544749916E-1,3.619000018E-1
3.520632403E0,-4.746499956E-1,-1.245749965E-1,3.746874928E-1
3.523134943E0,-5.608624816E-1,9.679999948E-2,3.800500035E-1
3.525637634E0,-6.364874840E-1,3.053874969E-1,3.789499998E-1
3.528140097E0,-7.002875209E-1,5.000874996E-1,3.724874854E-1
3.530642610E0,-7.503374815E-1,6.841999888E-1,3.650625050E-1
3.533145302E0,-7.907624841E-1,8.555250168E-1,3.607999980E-1
3.535647842E0,-8.130375147E-1,1.017362475E0,3.533749878E-1
3.538150304E0,-8.291249871E-1,1.154587507E0,3.491125107E-1
3.540653013E0,-8.375124931E-1,1.282325029E0,3.480125070E-1
3.543155554E0,-8.397125006E-1,1.396175027E0,3.513124883E-1
3.545658244E0,-8.300874829E-1,1.496137500E0,3.522749841E-1
3.548160708E0,-8.173000216E-1,1.582350016E0,3.544749916E-1
3.550663269E0,-8.035500050E-1,1.661137462E0,3.596999943E-1
3.553165961E0,-7.790749669E-1,1.723974943E0,3.587374985E-1
3.555668502E0,-7.545999885E-1,1.772925019E0,3.576374948E-1
3.558170963E0,-7.258625031E-1,1.811149955E0,3.596999943E-1
3.560673664E0,-6.960250139E-1,1.837824941E0,3.596999943E-1
3.563176204E0,-6.683874726E-1,1.859137535E0,3.576374948E-1
3.565678894E0,-6.353874803E-1,1.868625045E0,3.587374985E-1
3.568181358E0,-6.044499874E-1,1.870824933E0,3.576374948E-1
3.570683870E0,-5.725499988E-1,1.865462542E0,3.587374985E-1
3.573186563E0,-5.406500101E-1,1.853775024E0,3.587374985E-1
3.575689103E0,-5.141124725E-1,1.834662437E0,3.544749916E-1
3.578191794E0,-4.896374941E-1,1.807987452E0,3.470500112E-1
3.580694252E0,-4.651624858E-1,1.778149962E0,3.352249861E-1
3.583196789E0,-4.427500069E-1,1.740887523E0,3.235374987E-1
3.585699481E0,-4.268000126E-1,1.700462461E0,3.129499853E-1
3.588201944E0,-4.034250081E-1,1.650550008E0,3.064875007E-1
3.590704712E0,-3.832125068E-1,1.597337484E0,2.884750068E-1
3.593207175E0,-3.661625087E-1,1.536562443E0,2.725250125E-1
3.595709714E0,-3.522749841E-1,1.470700026E0,2.586374879E-1
3.598212404E0,-3.511750102E-1,1.384487510E0,2.448875010E-1
3.600714872E0,-3.767499924E-1,1.266374946E0,2.287999988E-1
3.603217408E0,-4.449499846E-1,1.100275040E0,2.076250017E-1
3.605720100E0,-5.576999784E-1,8.864625096E-1,1.798499972E-1
3.608222641E0,-7.130749822E-1,6.298875213E-1,1.427250057E-1
3.610725102E0,-8.940249681E-1,3.372874856E-1,1.149500012E-1
3.613227765E0,-1.091887474E0,3.286249936E-2,1.054624990E-1
3.615730305E0,-1.284525037E0,-2.736249864E-1,1.086250022E-1
3.618232995E0,-1.454749942E0,-5.587999821E-1,1.214125007E-1
3.620735536E0,-1.594174981E0,-8.174374700E-1,1.427250057E-1
3.623238001E0,-1.694275022E0,-1.047199965E0,1.681624949E-1
3.625740692E0,-1.757112503E0,-1.244099975E0,2.022625059E-1
3.628243232E0,-1.779387474E0,-1.414462447E0,2.395250052E-1
3.630745694E0,-1.763437510E0,-1.551687479E0,2.831124961E-1
3.633248370E0,-1.713387489E0,-1.664574981E0,3.342624903E-1
3.635750911E0,-1.635699987E0,-1.751749992E0,3.800500035E-1
3.638253601E0,-1.536700010E0,-1.812387466E0,4.204750061E-1
3.640756141E0,-1.420787454E0,-1.846487522E0,4.587000012E-1
3.643258588E0,-1.293050051E0,-1.858175039E0,4.842749834E-1
3.645761278E0,-1.163249969E0,-1.842224956E0,5.033875108E-1
3.648263819E0,-1.009937525E0,-1.793274999E0,5.098500252E-1
3.650766280E0,-8.237624764E-1,-1.705000043E0,5.024250150E-1
3.653269052E0,-6.034874916E-1,-1.562274933E0,4.746499956E-1
3.655771516E0,-3.309625089E-1,-1.354787469E0,4.321624935E-1
3.658274206E0,2.763750032E-2,-1.067549944E0,3.704249859E-1
3.660776670E0,4.905999899E-1,-7.013875246E-1,2.810499966E-1
3.663279408E0,9.981124997E-1,-3.097875118E-1,1.777874976E-1
3.665781872E0,1.479225039E0,4.675000161E-2,7.452499866E-2
3.668284410E0,1.903825045E0,3.469125032E-1,-1.594999991E-2
3.670787100E0,2.265587568E0,6.011499763E-1,-8.291249722E-2
3.673289603E0,2.557224989E0,8.065750003E-1,-1.329624951E-1
3.675792064E0,2.777499914E0,9.800999761E-1,-1.680250019E-1
3.678294755E0,2.929712534E0,1.147162437E0,-1.904374957E-1
3.680797295E0,3.007400036E0,1.338699937E0,-2.063875049E-1
3.683299970E0,3.029812574E0,1.561037540E0,-2.149125040E-1
3.685802434E0,3.008500099E0,1.799462438E0,-2.265999913E-1
3.688304970E0,2.962712526E0,2.030462503E0,-2.404875010E-1
3.690807663E0,2.906337500E0,2.244275093E0,-2.521750033E-1
3.693310179E0,2.845700026E0,2.443374872E0,-2.692250013E-1
3.695812870E0,2.787124872E0,2.613600016E0,-2.894375026E-1
3.698315333E0,2.727449894E0,2.766912460E0,-3.085500002E-1
3.700817870E0,2.666812420E0,2.908400059E0,-3.191374838E-1
3.703320562E0,2.610437393E0,3.033937454E0,-3.244999945E-1
3.705823001E0,2.555162430E0,3.136100054E0,-3.244999945E-1
3.708325538E0,2.502912521E0,3.214887381E0,-3.213374913E-1
3.710828230E0,2.458225012E0,3.268100023E0,-3.191374838E-1
3.713330771E0,2.415737391E0,3.305362463E0,-3.139125109E-1
3.715833228E0,2.378474951E0,3.325574875E0,-2.979624867E-1
3.718335919E0,2.341212511E0,3.310724974E0,-2.809124887E-1
3.720838459E0,2.305049896E0,3.258475065E0,-2.692250013E-1
3.723341149E0,2.277412415E0,3.174462557E0,-2.585000098E-1
3.725843690E0,2.253900051E0,3.061574936E0,-2.382874936E-1
3.728346170E0,2.241112471E0,2.934937477E0,-2.180749923E-1
3.730848861E0,2.235887527E0,2.806237459E0,-2.010249943E-1
3.733351401E0,2.236850023E0,2.669975042E0,-1.841125041E-1
3.735854091E0,2.240149975E0,2.530550003E0,-1.722874939E-1
3.738356641E0,2.248674870E0,2.381637573E0,-1.648624986E-1
3.740859102E0,2.259262562E0,2.234787464E0,-1.606000066E-1
3.743361793E0,2.273149967E0,2.086837530E0,-1.648624986E-1
3.745864333E0,2.288000107E0,1.933524966E0,-1.744875014E-1
3.748367024E0,2.299687386E0,1.780349970E0,-1.904374957E-1
3.750869487E0,2.307112455E0,1.620712519E0,-2.127124965E-1
3.753372024E0,2.309312582E0,1.447187543E0,-2.414499968E-1
3.755874716E0,2.305049896E0,1.263074994E0,-2.809124887E-1
3.758377256E0,2.291162491E0,1.075799942E0,-3.181749880E-1
3.760879699E0,2.268887520E0,8.938875198E-1,-3.511750102E-1
3.763382389E0,2.237950087E0,7.268249989E-1,-3.884375095E-1
3.765884930E0,2.204950094E0,5.766749978E-1,-4.181374907E-1
3.768387620E0,2.165625095E0,4.309250116E-1,-4.500375092E-1
3.770890084E0,2.113512516E0,2.872374952E-1,-4.841375053E-1
3.773392620E0,2.046412468E0,1.414874941E-1,-5.108125210E-1
3.775895312E0,1.966662526E0,-1.182499994E-2,-5.416125059E-1
3.778397853E0,1.869724989E0,-1.660999954E-1,-5.703499913E-1
3.780900314E0,1.753812432E0,-3.396250010E-1,-6.011499763E-1
3.783403034E0,1.627174973E0,-5.363875031E-1,-6.331874728E-1
3.785905574E0,1.502599955E0,-7.397499681E-1,-6.619250178E-1
3.788408264E0,1.385587454E0,-9.227625132E-1,-6.778749824E-1
3.790910728E0,1.284387469E0,-1.075937510E0,-6.884624958E-1
3.793413495E0,1.206699967E0,-1.187724948E0,-6.938250065E-1
3.795915959E0,1.187587500E0,-1.239837527E0,-6.830999851E-1
3.798418497E0,1.281224966E0,-1.203675032E0,-6.534000039E-1
3.800921188E0,1.470700026E0,-1.072775006E0,-6.011499763E-1
3.803423680E0,1.697299957E0,-8.567624688E-1,-5.362499952E-1
3.805926217E0,1.939987540E0,-5.758500099E-1,-4.628250003E-1
3.808428909E0,2.176212549E0,-2.480500042E-1,-3.873375058E-1
3.810931449E0,2.374212503E0,8.827500045E-2,-3.276624978E-1
3.813434164E0,2.523124933E0,4.127750099E-1,-2.734875083E-1
3.815936627E0,2.618962526E0,7.214624882E-1,-2.234375030E-1
3.818439164E0,2.667912483E0,1.010900021E0,-1.659625024E-1
3.820941856E0,2.669012547E0,1.247125030E0,-1.084875017E-1
3.823444391E0,2.625287533E0,1.406762481E0,-3.712499887E-2
3.825946853E0,2.541275024E0,1.514287472E0,5.541250110E-2
3.828449543E0,2.418900013E0,1.586612463E0,1.544124931E-1
3.830952084E0,2.273149967E0,1.617550015E0,2.437874973E-1
3.833454779E0,2.126300097E0,1.595137477E0,3.183124959E-1
3.835957243E0,1.978350043E0,1.540825009E0,3.852750063E-1
3.838459779E0,1.855975032E0,1.464237452E0,4.459125102E-1
3.840962471E0,1.748450041E0,1.360975027E0,5.024250150E-1
3.843465036E0,1.660174966E0,1.222650051E0,5.513749719E-1
3.845967497E0,1.594174981E0,1.039637446E0,5.927624702E-1
3.848470188E0,1.541924953E0,8.247249722E-1,6.300249696E-1
3.850972728E0,1.502599955E0,5.894625187E-1,6.694874763E-1
3.853475428E0,1.472762465E0,3.489750028E-1,7.099124789E-1
3.855977891E0,1.457912445E0,1.372250021E-1,7.364500165E-1
3.858480428E0,1.453649998E0,-2.887500077E-2,7.460749745E-1
3.860983120E0,1.465337515E0,-1.660999954E-1,7.492374778E-1
3.863485670E0,1.485550046E0,-3.086875081E-1,7.514374852E-1
3.865988132E0,1.517449975E0,-4.555374980E-1,7.523999810E-1
3.868490899E0,1.555812478E0,-5.949624777E-1,7.492374778E-1
3.870993363E0,1.601599932E0,-7.290250063E-1,7.449749708E-1
3.873496096E0,1.664437532E0,-8.844000101E-1,7.321875095E-1
3.875998559E0,1.742125034E0,-1.045137525E0,7.067499757E-1
3.878501327E0,1.820775032E0,-1.186625004E0,6.780124903E-1
3.881003790E0,1.903825045E0,-1.312299967E0,6.578000188E-1
3.883506329E0,1.994300008E0,-1.418725014E0,6.492750049E-1
3.886009019E0,2.077349901E0,-1.505900025E0,6.535375118E-1
3.888511560E0,2.161362410E0,-1.582625031E0,6.641250253E-1
3.891014021E0,2.257200003E0,-1.646425009E0,6.822749972E-1
3.893516697E0,2.358262539E0,-1.697437525E0,6.949250102E-1
3.896019238E0,2.461524963E0,-1.754912496E0,6.939625144E-1
3.898521928E0,2.567950010E0,-1.828337431E0,6.886000037E-1
3.901024392E0,2.674237490E0,-1.897500038E0,6.737499833E-1
3.903526928E0,2.776537418E0,-1.954012513E0,6.470749974E-1
3.906029648E0,2.875400066E0,-2.003925085E0,6.098124981E-1
3.908532189E0,2.969037533E0,-2.042287588E0,5.662249923E-1
3.911034650E0,3.058549881E0,-2.072124958E0,5.183749795E-1
3.913537341E0,3.145725012E0,-2.118875027E0,4.703874886E-1
3.916039881E0,3.231937408E0,-2.176349878E0,4.247374833E-1
3.918542587E0,3.316087484E0,-2.210449934E0,3.832125068E-1
3.921045050E0,3.389512539E0,-2.236025095E0,3.459500074E-1
3.923547587E0,3.441624880E0,-2.246612549E0,3.140499890E-1
3.926050279E0,3.476687431E0,-2.250874996E0,2.895750105E-1
3.928552819E0,3.493737459E0,-2.253074884E0,2.714250088E-1
3.931055281E0,3.495937586E0,-2.255137444E0,2.543750107E-1
3.933557971E0,3.473525047E0,-2.266824961E0,2.426874936E-1
3.936060512E0,3.429937363E0,-2.279612541E0,2.341624945E-1
3.938563187E0,3.369299889E0,-2.283874989E0,2.278375030E-1
3.941065727E0,3.289412498E0,-2.276449919E0,2.224749923E-1
3.943568189E0,3.190412521E0,-2.245512486E0,2.182125002E-1
3.946070879E0,3.075462580E0,-2.188037395E0,2.171124965E-1
3.948573425E0,2.958450079E0,-2.133862495E0,2.076250017E-1
3.951076115E0,2.833874941E0,-2.086975098E0,1.959374994E-1
3.953578656E0,2.697750092E0,-2.032662392E0,1.841125041E-1
3.956081117E0,2.557224989E0,-1.978487492E0,1.735250056E-1
3.958583802E0,2.410374880E0,-1.919912457E0,1.629374921E-1
3.961086343E0,2.261324883E0,-1.858175039E0,1.553750038E-1
3.963589033E0,2.113512516E0,-1.800699949E0,1.394249946E-1
3.966091497E0,1.966662526E0,-1.738000035E0,1.203124970E-1
3.968594019E0,1.821874976E0,-1.670899987E0,9.790000319E-2
3.971096712E0,1.692075014E0,-1.626212478E0,6.819999963E-2
3.973599252E0,1.568599939E0,-1.581524968E0,4.688749835E-2
3.976101714E0,1.447324991E0,-1.521849990E0,2.983750030E-2
3.978604394E0,1.328112483E0,-1.446362495E0,2.131249942E-2
3.981106934E0,1.206699967E0,-1.357949972E0,1.388750039E-2
3.983609625E0,1.088587523E0,-1.257987499E0,1.608750038E-2
3.986112088E0,9.726749659E-1,-1.149362445E0,2.131249942E-2
3.988614644E0,8.619874716E-1,-1.056825042E0,2.557500079E-2
3.991117336E0,7.576249838E-1,-9.759749770E-1,3.093750030E-2
3.993619876E0,6.597250104E-1,-9.014499784E-1,4.262499884E-2
3.996122338E0,5.692499876E-1,-8.269249797E-1,6.503749639E-2
3.998625125E0,4.873000085E-1,-7.545999885E-1,7.878749818E-2
4.001127589E0,4.138749838E-1,-6.886000037E-1,9.157499671E-2
4.003630279E0,3.489750028E-1,-6.333249807E-1,1.054624990E-1
4.006132743E0,2.851749957E-1,-5.769500136E-1,1.203124970E-1
4.008635510E0,2.297624946E-1,-5.289624929E-1,1.319999993E-1
4.011137982E0,1.787499934E-1,-4.950000048E-1,1.458874941E-1
4.013640521E0,1.287000030E-1,-4.705249965E-1,1.575749964E-1
4.016143211E0,8.084999770E-2,-4.587000012E-1,1.703625023E-1
4.018645675E0,3.396249935E-2,-4.640625119E-1,1.820500046E-1
4.021148211E0,-6.462499965E-3,-4.768500030E-1,1.916749924E-1
4.023650899E0,-4.372499883E-2,-4.896374941E-1,2.022625059E-1
4.026153439E0,-8.195000142E-2,-5.024250150E-1,2.139499933E-1
4.028655901E0,-1.160499975E-1,-5.066875219E-1,2.213750035E-1
4.031158591E0,-1.447875053E-1,-5.226374865E-1,2.395250052E-1
4.033661131E0,-1.703625023E-1,-5.619624853E-1,2.575374842E-1
4.036163845E0,-1.948374957E-1,-6.120125055E-1,2.725250125E-1
4.038666385E0,-2.107875049E-1,-6.705874801E-1,2.831124961E-1
4.041168847E0,-2.245374918E-1,-7.226999998E-1,2.884750068E-1
4.043671537E0,-2.395250052E-1,-7.694500089E-1,2.990624905E-1
4.046174045E0,-2.512125075E-1,-8.035500050E-1,3.097875118E-1
4.048676736E0,-2.586374879E-1,-8.365499973E-1,3.214749992E-1
4.051179199E0,-2.725250125E-1,-8.578624725E-1,3.352249861E-1
4.053681736E0,-2.831124961E-1,-8.738124967E-1,3.502124846E-1
4.056184412E0,-2.969999909E-1,-8.951249719E-1,3.682250082E-1
4.058686953E0,-3.118500113E-1,-9.259250164E-1,3.906374872E-1
4.061189414E0,-3.235374987E-1,-9.546625018E-1,4.162124991E-1
4.063692104E0,-3.427875042E-1,-9.717124701E-1,4.353249967E-1
4.066194641E0,-3.607999980E-1,-9.844999909E-1,4.555374980E-1
4.068697331E0,-3.863750100E-1,-9.950875044E-1,4.757499993E-1
4.071199795E0,-4.129124880E-1,-9.982500076E-1,5.024250150E-1
4.073702331E0,-4.373874962E-1,-1.003612518E0,5.215374827E-1
4.076205008E0,-4.533374906E-1,-1.010074973E0,5.332249999E-1
4.078707549E0,-4.714874923E-1,-1.020662546E0,5.374875069E-1
4.081210011E0,-4.831750095E-1,-1.023825049E0,5.406500101E-1
4.083712701E0,-4.863374829E-1,-1.022724986E0,5.417500138E-1
4.086215241E0,-4.874374866E-1,-1.014337540E0,5.406500101E-1
4.088717908E0,-4.939000010E-1,-9.993500113E-1,5.321249962E-1
4.091220448E0,-4.939000010E-1,-9.770749807E-1,5.119125247E-1
4.093723138E0,-4.927999973E-1,-9.557625055E-1,4.927999973E-1
4.096225602E0,-4.916999936E-1,-9.355499744E-1,4.703874886E-1
4.098728157E0,-4.896374941E-1,-9.174000025E-1,4.395875037E-1
4.101230850E0,-4.820750058E-1,-9.046124816E-1,4.065875113E-1
4.103733390E0,-4.703874886E-1,-8.929250240E-1,3.682250082E-1
4.106236080E0,-4.501749873E-1,-8.780750036E-1,3.278000057E-1
4.108738539E0,-4.193750024E-1,-8.663874865E-1,2.895750105E-1
4.111241076E0,-3.841750026E-1,-8.471375108E-1,2.512125075E-1
4.113743768E0,-3.437500000E-1,-8.184000254E-1,2.193125039E-1
4.116246308E0,-3.012624979E-1,-7.918624878E-1,1.883749962E-1
4.118748751E0,-2.608374953E-1,-7.684875131E-1,1.639000028E-1
4.121251441E0,-2.384250015E-1,-7.525374889E-1,1.405249983E-1
4.123753982E0,-2.171124965E-1,-7.440124750E-1,1.182499975E-1
4.126256672E0,-2.022625059E-1,-7.514374852E-1,9.473749995E-2
4.128759164E0,-1.968999952E-1,-7.567999959E-1,7.452499866E-2
4.131261701E0,-1.991000026E-1,-7.662875056E-1,5.747500062E-2
4.133764393E0,-2.033624947E-1,-7.855374813E-1,3.519999981E-2
4.136266934E0,-2.139499933E-1,-8.078125119E-1,1.608750038E-2
4.138769409E0,-2.330625057E-1,-8.280249834E-1,-9.624999948E-4
4.141272100E0,-2.523125112E-1,-8.525000215E-1,-1.911249943E-2
4.143774640E0,-2.788499892E-1,-8.673499823E-1,-3.506249934E-2
4.146277330E0,-3.064875007E-1,-8.812375069E-1,-4.564999789E-2
4.148779794E0,-3.416875005E-1,-8.823375106E-1,-5.527500063E-2
4.151282330E0,-3.832125068E-1,-8.706499934E-1,-6.270000339E-2
4.153785023E0,-4.236375093E-1,-8.525000215E-1,-6.159999967E-2
4.156287563E0,-4.587000012E-1,-8.269249797E-1,-5.527500063E-2
4.158790025E0,-4.885374904E-1,-7.929624915E-1,-4.138749838E-2
4.161292792E0,-5.183749795E-1,-7.503374815E-1,-2.763750032E-2
4.163795255E0,-5.428500175E-1,-7.002875209E-1,-9.487500414E-3
4.166297946E0,-5.619624853E-1,-6.407499909E-1,1.182499994E-2
4.168800419E0,-5.715875030E-1,-5.821750164E-1,3.629999980E-2
4.171303187E0,-5.768125057E-1,-5.098500252E-1,6.710000336E-2
4.173805650E0,-5.693874955E-1,-4.299624860E-1,9.473749995E-2
4.176308189E0,-5.554999709E-1,-3.363249898E-1,1.256749928E-1
4.178810869E0,-5.300624967E-1,-2.384250015E-1,1.639000028E-1
4.181313332E0,-4.959625006E-1,-1.373624951E-1,1.991000026E-1
4.183815869E0,-4.512749910E-1,-3.629999980E-2,2.256374955E-1
4.186318561E0,-4.001249969E-1,6.696250290E-2,2.448875010E-1
4.188821102E0,-3.502124846E-1,1.722874939E-1,2.512125075E-1
4.191323768E0,-3.064875007E-1,2.744500041E-1,2.448875010E-1
4.193826232E0,-2.810499966E-1,3.649249971E-1,2.139499933E-1
4.196328768E0,-2.714250088E-1,4.329875112E-1,1.639000028E-1
4.198831460E0,-2.756874859E-1,4.702500105E-1,9.267500043E-2
4.201334001E0,-2.884750068E-1,4.915624857E-1,2.199999988E-3
4.203836472E0,-3.033249974E-1,5.075125098E-1,-9.679999948E-2
4.206339163E0,-3.172124922E-1,5.277249813E-1,-1.915374994E-1
4.208841703E0,-3.246375024E-1,5.501375198E-1,-2.798124850E-1
4.211344393E0,-3.183124959E-1,5.766749978E-1,-3.543374836E-1
4.213846890E0,-2.979624867E-1,5.916625261E-1,-4.118124843E-1
4.216349426E0,-2.692250013E-1,5.937250257E-1,-4.426124990E-1
4.218852119E0,-2.363625020E-1,5.831375122E-1,-4.416500032E-1
4.221354659E0,-2.022625059E-1,5.852000117E-1,-4.118124843E-1
4.223857131E0,-1.703625023E-1,6.022499800E-1,-3.660250008E-1
4.226359821E0,-1.405249983E-1,6.500999928E-1,-3.042874932E-1
4.228862362E0,-1.128875017E-1,7.331500053E-1,-2.297624946E-1
4.231365052E0,-8.098749816E-2,8.384749889E-1,-1.531749964E-1
4.233867515E0,-4.895000160E-2,9.598875046E-1,-7.342500240E-2
4.236370057E0,-1.388750039E-2,1.081162453E0,-2.062499989E-3
4.238872749E0,2.062499989E-3,1.189649940E0,5.857500061E-2
4.241375290E0,9.624999948E-4,1.294012547E0,1.043625027E-1
4.243877751E0,-2.557500079E-2,1.380224943E0,1.245749965E-1
4.246380518E0,-8.415000141E-2,1.441962481E0,1.225124970E-1
4.248882982E0,-1.746249944E-1,1.479225039E0,1.011999995E-1
4.251385672E0,-2.862749994E-1,1.506862521E0,6.599999964E-2
4.253888213E0,-4.182749987E-1,1.533399940E0,1.388750039E-2
4.256390927E0,-5.587999821E-1,1.573825002E0,-4.042499885E-2
4.258893468E0,-6.928625107E-1,1.640925050E0,-8.827500045E-2
4.261395929E0,-8.152375221E-1,1.727137446E0,-1.329624951E-1
4.263898619E0,-9.205625057E-1,1.832462549E0,-1.755875051E-1
4.266401136E0,-1.020662546E0,1.926100016E0,-2.202749997E-1
4.268903597E0,-1.108937502E0,2.019737482E0,-2.627624869E-1
4.271406288E0,-1.173837543E0,2.117637396E0,-3.031874895E-1
4.273908828E0,-1.231312513E0,2.207012415E0,-3.511750102E-1
4.276411509E0,-1.290987492E0,2.293225050E0,-3.947624862E-1
4.278914049E0,-1.342000008E0,2.364587545E0,-4.405499995E-1
4.281416511E0,-1.395212531E0,2.416699886E0,-4.894999862E-1
4.283919201E0,-1.456949949E0,2.461387396E0,-5.373499990E-1
4.286421746E0,-1.519787550E0,2.492325068E0,-5.831375122E-1
4.288924437E0,-1.582487464E0,2.507174969E0,-6.246625185E-1
4.291426900E0,-1.654950023E0,2.504012585E0,-6.682500243E-1
4.293929437E0,-1.732637525E0,2.476375103E0,-7.086749673E-1
4.296432110E0,-1.804962516E0,2.446537495E0,-7.523999810E-1
4.298934650E0,-1.879487514E0,2.417799950E0,-7.948874831E-1
4.301437112E0,-1.952912450E0,2.385900021E0,-8.427374959E-1
4.303939802E0,-2.025237560E0,2.352900028E0,-8.927875161E-1
4.306442310E0,-2.101824999E0,2.319900036E0,-9.491624832E-1
4.308945000E0,-2.181712389E0,2.291162491E0,-1.007737517E0
4.311447464E0,-2.272187471E0,2.249637604E0,-1.065212488E0
4.313950231E0,-2.373250008E0,2.188999891E0,-1.115262508E0
4.316452694E0,-2.486000061E0,2.112412453E0,-1.162012458E0
4.318955228E0,-2.610574961E0,2.025099993E0,-1.202437520E0
4.321457918E0,-2.735012531E0,1.934625030E0,-1.237637520E0
4.323960459E0,-2.856425047E0,1.843187451E0,-1.265275002E0
4.326462920E0,-2.970274925E0,1.757937431E0,-1.276962519E0
4.328965610E0,-3.074500084E0,1.684512496E0,-1.278062463E0
4.331468113E0,-3.168137550E0,1.624974966E0,-1.262112498E0
4.333970803E0,-3.251187563E0,1.579187512E0,-1.235437512E0
4.336473267E0,-3.316087484E0,1.555812478E0,-1.190750003E0
4.338975803E0,-3.369299889E0,1.552649975E0,-1.136574984E0
4.341478496E0,-3.419349909E0,1.562137485E0,-1.066312551E0
4.343981017E0,-3.460875034E0,1.579187512E0,-9.843624830E-1
4.346483479E0,-3.491674900E0,1.605862498E0,-8.896250129E-1
4.348986169E0,-3.509824991E0,1.628137469E0,-7.832000256E-1
4.351488709E0,-3.512987375E0,1.664299965E0,-6.704499722E-1
4.353991404E0,-3.502399921E0,1.710087538E0,-5.490375161E-1
4.356493867E0,-3.471462488E0,1.755874991E0,-4.288625121E-1
4.358996404E0,-3.393774986E0,1.806887507E0,-2.979624867E-1
4.361499096E0,-3.257649899E0,1.866562486E0,-1.489125043E-1
4.364001656E0,-3.071337461E0,1.917575002E0,-7.424999960E-3
4.366504118E0,-2.853125095E0,1.928300023E0,1.106875017E-1
4.369006808E0,-2.623362541E0,1.920874953E0,1.991000026E-1
4.371509349E0,-2.383837461E0,1.884575009E0,2.554749846E-1
4.374012010E0,-2.143349886E0,1.829300046E0,2.842124999E-1
4.376514551E0,-1.898599982E0,1.776087523E0,2.788499892E-1
4.379017012E0,-1.662374973E0,1.738824964E0,2.543750107E-1
4.381519702E0,-1.437837481E0,1.708024979E0,2.193125039E-1
4.384022243E0,-1.225950003E0,1.648350000E0,1.926375031E-1
4.386524675E0,-1.023825049E0,1.551550031E0,1.607374996E-1
4.389027443E0,-8.375124931E-1,1.426975012E0,1.319999993E-1
4.391529906E0,-6.726499796E-1,1.295112491E0,1.021625027E-1
4.394032597E0,-5.257999897E-1,1.156649947E0,6.819999963E-2
4.396535055E0,-3.991625011E-1,1.014062524E0,3.093750030E-2
4.399037822E0,-2.862749994E-1,8.640499711E-1,-1.484999992E-2
4.401540286E0,-1.874125004E-1,7.182999849E-1,-6.063750014E-2
4.404042824E0,-1.043625027E-1,5.841000080E-1,-1.190750003E-1
4.406545505E0,-3.093750030E-2,4.522374868E-1,-1.819124967E-1
4.409048045E0,2.337500080E-2,3.298625052E-1,-2.532750070E-1
4.411550507E0,7.012499869E-2,2.063875049E-1,-3.181749880E-1
4.414053197E0,1.116499975E-1,8.923749626E-2,-3.841750026E-1
4.416555728E0,1.478125006E-1,-2.034999989E-2,-4.553999901E-1
4.419058419E0,1.691250056E-1,-1.447875053E-1,-5.213999748E-1
4.421560882E0,1.436875015E-1,-3.522749841E-1,-5.831375122E-1
4.424063419E0,5.953750014E-2,-6.470749974E-1,-6.480374932E-1
4.426566067E0,-5.747500062E-2,-9.770749807E-1,-7.023500204E-1
4.429068608E0,-2.256374955E-1,-1.368674994E0,-7.405750155E-1
4.431571069E0,-4.182749987E-1,-1.790112495E0,-7.544624805E-1
4.434073759E0,-6.003249884E-1,-2.172087431E0,-7.512999773E-1
4.436576320E0,-7.577624917E-1,-2.506350040E0,-7.268249989E-1
4.439079010E0,-9.003499746E-1,-2.798949957E0,-6.799374819E-1
4.441581474E0,-1.017362475E0,-3.053324938E0,-6.182000041E-1
4.444084010E0,-1.106874943E0,-3.271399975E0,-5.543999672E-1
4.446586717E0,-1.171774983E0,-3.450287580E0,-4.798749983E-1
4.449089257E0,-1.216462493E0,-3.588612556E0,-4.043875039E-1
4.451591947E0,-1.238737464E0,-3.691874981E0,-3.319250047E-1
4.454094411E0,-1.243000031E0,-3.766262531E0,-2.670249939E-1
4.456596947E0,-1.237774968E0,-3.803524971E0,-2.074874938E-1
4.459099640E0,-1.220724940E0,-3.799262524E0,-1.500124931E-1
4.461602180E0,-1.197212458E0,-3.764199972E0,-9.679999948E-2
4.464104642E0,-1.164350033E0,-3.698199987E0,-5.321250111E-2
4.466607332E0,-1.129150033E0,-3.606625080E0,-2.227500081E-2
4.469109872E0,-1.096150041E0,-3.506662369E0,3.299999982E-3
4.471612563E0,-1.052562475E0,-3.394875050E0,1.704999991E-2
4.474115103E0,-1.002512455E0,-3.273600101E0,2.131249942E-2
4.476617818E0,-9.514999986E-1,-3.143800020E0,2.557500079E-2
4.479120281E0,-9.057124853E-1,-3.010699987E0,2.447500080E-2
4.481622818E0,-8.610249758E-1,-2.876637459E0,2.034999989E-2
4.484125510E0,-8.215624690E-1,-2.738312483E0,2.034999989E-2
4.486628045E0,-7.885624766E-1,-2.594624996E0,1.924999990E-2
4.489130507E0,-7.599624991E-1,-2.453137398E0,2.131249942E-2
4.491633197E0,-7.396125197E-1,-2.315774918E0,2.777500078E-2
4.494135738E0,-7.269625068E-1,-2.180612564E0,4.152499884E-2
4.496638232E0,-7.236624956E-1,-2.053975105E0,6.819999963E-2
4.499140923E0,-7.269625068E-1,-1.941224933E0,9.377499670E-2
4.501643463E0,-7.438749671E-1,-1.836862445E0,1.214125007E-1
4.504146153E0,-7.640874982E-1,-1.732637525E0,1.511124969E-1
4.506648645E0,-7.918624878E-1,-1.636800051E0,1.777874976E-1
4.509151181E0,-8.205999732E-1,-1.542062521E0,2.001999915E-1
4.511653874E0,-8.514000177E-1,-1.444162488E0,2.256374955E-1
4.514156414E0,-8.833000064E-1,-1.345299959E0,2.512125075E-1
4.516659104E0,-9.142374992E-1,-1.247400045E0,2.725250125E-1
4.519161655E0,-9.472374916E-1,-1.145237446E0,2.947999835E-1
4.521664116E0,-9.759749770E-1,-1.038812518E0,3.140499890E-1
4.524166807E0,-1.000450015E0,-9.259250164E-1,3.363249898E-1
4.526669347E0,-1.021625042E0,-8.120750189E-1,3.555749953E-1
4.529172032E0,-1.037712455E0,-6.971250176E-1,3.715249896E-1
4.531674496E0,-1.050362468E0,-5.853375196E-1,3.874749839E-1
4.534177033E0,-1.062187552E0,-4.768500030E-1,4.045250118E-1
4.536679725E0,-1.069612503E0,-3.704249859E-1,4.171749949E-1
4.539182275E0,-1.072775006E0,-2.651000023E-1,4.278999865E-1
4.541684966E0,-1.073874950E0,-1.629374921E-1,4.364250004E-1
4.544187429E0,-1.072775006E0,-6.613750011E-2,4.373874962E-1
4.546689966E0,-1.077037454E0,2.859999985E-2,4.342249930E-1
4.549192687E0,-1.075937510E0,1.287000030E-1,4.310624897E-1
4.551695227E0,-1.081300020E0,2.319625020E-1,4.268000126E-1
4.554197689E0,-1.089825034E0,3.383874893E-1,4.214375019E-1
4.556700379E0,-1.094087481E0,4.500375092E-1,4.193750024E-1
4.559202930E0,-1.110037446E0,5.564625263E-1,4.129124880E-1
4.561705620E0,-1.123787522E0,6.650875211E-1,4.045250118E-1
4.564208084E0,-1.136574984E0,7.767375112E-1,4.012250006E-1
4.566710620E0,-1.150462508E0,8.874250054E-1,3.991625011E-1
4.569213317E0,-1.165312529E0,9.927499890E-1,3.948999941E-1
4.571715858E0,-1.180299997E0,1.098212481E0,3.884375095E-1
4.574218319E0,-1.200512528E0,1.207800031E0,3.863750100E-1
4.576721087E0,-1.216462493E0,1.315325022E0,3.800500035E-1
4.579223555E0,-1.236675024E0,1.417487502E0,3.767499924E-1
4.581726245E0,-1.260049939E0,1.513187528E0,3.746874928E-1
4.584228709E0,-1.285624981E0,1.596237540E0,3.661625087E-1
4.586731476E0,-1.300475001E0,1.664299965E0,3.596999943E-1
4.589233964E0,-1.318624973E0,1.713250041E0,3.544749916E-1
4.591736502E0,-1.333474994E0,1.746250033E0,3.513124883E-1
4.594239193E0,-1.345162511E0,1.760137439E0,3.427875042E-1
4.596741656E0,-1.355887532E0,1.755874991E0,3.385249972E-1
4.599244159E0,-1.361112475E0,1.737725019E0,3.342624903E-1
4.601746851E0,-1.368674994E0,1.706925035E0,3.268375099E-1
4.604249391E0,-1.376099944E0,1.668562531E0,3.183124959E-1
4.606752082E0,-1.390949965E0,1.628137469E0,3.055250049E-1
4.609254535E0,-1.404837489E0,1.585512519E0,2.947999835E-1
4.611757072E0,-1.425050020E0,1.534500003E0,2.831124961E-1
4.614259764E0,-1.448424935E0,1.480187535E0,2.682625055E-1
4.616762304E0,-1.475100040E0,1.419549942E0,2.543750107E-1
4.619264761E0,-1.502737522E0,1.354650021E0,2.384250015E-1
4.621767451E0,-1.535737514E0,1.284387469E0,2.246749997E-1
4.624269992E0,-1.570799947E0,1.206699967E0,2.085874975E-1
4.626772682E0,-1.603799939E0,1.126950026E0,1.926375031E-1
4.629275146E0,-1.641062498E0,1.040737510E0,1.746249944E-1
4.631777682E0,-1.677224994E0,9.513624907E-1,1.596374959E-1
4.634280374E0,-1.712424994E0,8.597875237E-1,1.447875053E-1
4.636782915E0,-1.747487545E0,7.596874833E-1,1.234750003E-1
4.639285615E0,-1.778287530E0,6.597250104E-1,1.086250022E-1
4.641788079E0,-1.806062460E0,5.618249774E-1,9.377499670E-2
4.644290615E0,-1.836862445E0,4.670875072E-1,7.878749818E-2
4.646793308E0,-1.862437487E0,3.723500073E-1,6.393750012E-2
4.649295838E0,-1.880450010E0,2.787125111E-1,5.115000159E-2
4.651798528E0,-1.897500038E0,1.967625022E-1,4.056249931E-2
4.654300992E0,-1.911387444E0,1.233374998E-1,2.983750030E-2
4.656803528E0,-1.919912457E0,5.733750015E-2,1.924999990E-2
4.659306207E0,-1.923074961E0,3.162499983E-3,6.462499965E-3
4.661808747E0,-1.917712450E0,-4.262499884E-2,-3.162499983E-3
4.664311209E0,-1.912487507E0,-8.415000141E-2,-1.058750041E-2
4.666813899E0,-1.900662541E0,-1.203124970E-1,-1.374999993E-2
4.669316401E0,-1.884712458E0,-1.544124931E-1,-2.117500082E-2
4.671819092E0,-1.862437487E0,-1.788875014E-1,-3.079999983E-2
4.674321632E0,-1.841125011E0,-2.001999915E-1,-3.712499887E-2
4.676824094E0,-1.815549970E0,-2.256374955E-1,-4.564999789E-2
4.679326784E0,-1.793274999E0,-2.480500042E-1,-5.321250111E-2
4.681829305E0,-1.768800020E0,-2.651000023E-1,-5.953750014E-2
4.684331995E0,-1.742125034E0,-2.788499892E-1,-7.342500240E-2
4.686834458E0,-1.714487433E0,-2.958999872E-1,-8.937499672E-2
4.689336995E0,-1.683687449E0,-3.055250049E-1,-1.148125008E-1
4.691839692E0,-1.652750015E0,-3.075875044E-1,-1.468500048E-1
4.694342233E0,-1.612324953E0,-2.969999909E-1,-1.882375032E-1
4.696844694E0,-1.563374996E0,-2.864125073E-1,-2.414499968E-1
4.699347385E0,-1.505900025E0,-2.671625018E-1,-2.989250124E-1
4.701849930E0,-1.434537530E0,-2.448875010E-1,-3.671250045E-1
4.704352620E0,-1.352725029E0,-2.193125039E-1,-4.394499958E-1
4.706855084E0,-1.260049939E0,-1.959374994E-1,-5.117750168E-1
4.709357620E0,-1.154724956E0,-1.724250019E-1,-5.874000192E-1
4.711860289E0,-1.041975021E0,-1.618375033E-1,-6.608250141E-1
4.714362829E0,-9.248250127E-1,-1.692624986E-1,-7.288874984E-1
4.716865291E0,-8.046500087E-1,-1.927749962E-1,-8.002499938E-1
4.719368058E0,-6.863999963E-1,-2.374625057E-1,-8.683124781E-1
4.721870526E0,-5.758500099E-1,-3.086875081E-1,-9.237250090E-1
4.724373217E0,-4.842749834E-1,-4.087874889E-1,-9.715750217E-1
4.726875680E0,-3.991625011E-1,-5.300624967E-1,-1.011999965E0
4.729378448E0,-3.278000057E-1,-6.652249694E-1,-1.038537502E0
4.731880915E0,-2.682625055E-1,-8.216999769E-1,-1.053524971E0
4.734383454E0,-2.299000025E-1,-9.972875118E-1,-1.053524971E0
4.736886144E0,-2.085874975E-1,-1.180299997E0,-1.033312440E0
4.739388684E0,-2.033624947E-1,-1.372937441E0,-9.864249825E-1
4.741891151E0,-2.150499970E-1,-1.571900010E0,-9.161624908E-1
4.744393841E0,-2.310000062E-1,-1.771962523E0,-8.267874718E-1
4.746896382E0,-2.532750070E-1,-1.954012513E0,-7.171999812E-1
4.749399072E0,-2.873750031E-1,-2.110349894E0,-5.852000117E-1
4.751901545E0,-3.331624866E-1,-2.217875004E0,-4.416500032E-1
4.754404082E0,-3.799124956E-1,-2.274250031E0,-2.862749994E-1
4.756906774E0,-4.278999865E-1,-2.273287535E0,-1.275999993E-1
4.759409315E0,-4.736874998E-1,-2.207287550E0,2.241249941E-2
4.761911809E0,-5.098500252E-1,-2.084912539E0,1.533125043E-1
4.764414500E0,-5.321249962E-1,-1.907124996E0,2.671625018E-1
4.766917040E0,-5.310249925E-1,-1.684787512E0,3.555749953E-1
4.769419730E0,-5.119125247E-1,-1.427250028E0,4.204750061E-1
4.771922218E0,-4.672249854E-1,-1.149500012E0,4.757499993E-1
4.774424754E0,-3.959999979E-1,-8.589624763E-1,5.141124725E-1
4.776927447E0,-3.001624942E-1,-5.534374714E-1,5.428500175E-1
4.779429987E0,-1.863124967E-1,-2.459875047E-1,5.682874918E-1
4.781932464E0,-5.747500062E-2,6.379999965E-2,5.949624777E-1
4.784435154E0,8.084999770E-2,3.628624976E-1,6.300249696E-1
4.786937694E0,2.171124965E-1,6.352499723E-1,6.704499722E-1
4.789440385E0,3.511750102E-1,8.736749887E-1,7.226999998E-1
4.791942901E0,4.735499918E-1,1.072637439E0,7.822374701E-1
4.794445363E0,5.927624702E-1,1.229112506E0,8.545625210E-1
4.796948053E0,7.118374705E-1,1.332237482E0,9.301875234E-1
4.799450594E0,8.300874829E-1,1.381187439E0,1.008975029E0
4.801953031E0,9.470999837E-1,1.389712453E0,1.074975014E0
4.804455798E0,1.062049985E0,1.378024936E0,1.117462516E0
4.806958262E0,1.172737479E0,1.346125007E0,1.144137502E0
4.809460952E0,1.272699952E0,1.294012547E0,1.156787515E0
4.811963493E0,1.368537545E0,1.229112506E0,1.153625011E0
4.814466183E0,1.459012508E0,1.155687451E0,1.146199942E0
4.816968723E0,1.548387527E0,1.073737502E0,1.127087474E0
4.819471185E0,1.638862491E0,9.810624719E-1,1.102612495E0
4.821973875E0,1.727137446E0,8.799999952E-1,1.075937510E0
4.824476416E0,1.820775032E0,7.735750079E-1,1.048300028E0
4.826979106E0,1.910149932E0,6.725124717E-1,1.019562483E0
4.829481570E0,1.997462511E0,5.692499876E-1,9.887624979E-1
4.831984120E0,2.087937593E0,4.713499844E-1,9.642875195E-1
4.834486812E0,2.179512501E0,3.819749951E-1,9.429749846E-1
4.836989353E0,2.269850016E0,2.989250124E-1,9.185000062E-1
4.839491814E0,2.361424923E0,2.308624983E-1,8.908625245E-1
4.841994505E0,2.451900005E0,1.850749999E-1,8.630874753E-1
4.844497045E0,2.540174961E0,1.669249982E-1,8.333874941E-1
4.846999736E0,2.632849932E0,1.797125041E-1,8.035500050E-1
4.849502199E0,2.714799881E0,2.286625057E-1,7.833374739E-1
4.852004741E0,2.797712564E0,3.053874969E-1,7.673875093E-1
4.854507433E0,2.875400066E0,4.042499959E-1,7.545999885E-1
4.857009973E0,2.948824883E0,5.128750205E-1,7.343875170E-1
4.859512664E0,3.009462595E0,6.278250217E-1,7.130749822E-1
4.862015132E0,3.058412552E0,7.470374703E-1,6.822749972E-1
4.864517669E0,3.093612432E0,8.597875237E-1,6.620625257E-1
4.867020361E0,3.115887403E0,9.767999649E-1,6.502375007E-1
4.869522825E0,3.127712488E0,1.091750026E0,6.407499909E-1
4.872025596E0,3.127712488E0,1.206699967E0,6.353874803E-1
4.874528059E0,3.118087530E0,1.309962511E0,6.342874765E-1
4.877030598E0,3.102137566E0,1.398237467E0,6.311249733E-1
4.879533288E0,3.085087538E0,1.457912445E0,6.109125018E-1
4.882035820E0,3.062674999E0,1.478124976E0,5.821750164E-1
4.884538281E0,3.037237406E0,1.477025032E0,5.502749681E-1
4.887040971E0,3.009462595E0,1.471662521E0,5.119125247E-1
4.889543512E0,2.976599932E0,1.448287487E0,4.651624858E-1
4.892046202E0,2.933974981E0,1.412124991E0,4.129124880E-1
4.894548661E0,2.888187408E0,1.367437482E0,3.533749878E-1
4.897051197E0,2.838137388E0,1.312024951E0,2.884750068E-1
4.899553890E0,2.787124872E0,1.256749988E0,2.161500007E-1
4.902056430E0,2.743537426E0,1.208899975E0,1.362625062E-1
4.904558863E0,2.705174923E0,1.169437528E0,5.541250110E-2
4.907061553E0,2.672174931E0,1.140699983E0,-2.447500080E-2
4.909564093E0,2.641375065E0,1.127912521E0,-9.790000319E-2
4.912066784E0,2.612637520E0,1.120487452E0,-1.670625061E-1
4.914569290E0,2.585962534E0,1.122687459E0,-2.287999988E-1
4.917071752E0,2.561487436E0,1.122687459E0,-2.820124924E-1
4.919574442E0,2.542375088E0,1.115262508E0,-3.267000020E-1
4.922076982E0,2.518862486E0,1.110999942E0,-3.617624938E-1
4.924579673E0,2.495487452E0,1.109899998E0,-3.936625123E-1
4.927082122E0,2.474174976E0,1.105637550E0,-4.212999940E-1
4.929584659E0,2.461524963E0,1.098212481E0,-4.448125064E-1
4.932087351E0,2.447637558E0,1.091750026E0,-4.596624970E-1
4.934589892E0,2.433749914E0,1.085425019E0,-4.702500105E-1
4.937092343E0,2.425225019E0,1.086524963E0,-4.778124988E-1
4.939595110E0,2.417799950E0,1.094912529E0,-4.724499881E-1
4.942097574E0,2.412575006E0,1.107699990E0,-4.639250040E-1
4.944600264E0,2.410374880E0,1.120487452E0,-4.553999901E-1
4.947102795E0,2.402950048E0,1.141800046E0,-4.448125064E-1
4.949605485E0,2.391262531E0,1.162012458E0,-4.288625121E-1
4.952107949E0,2.367749929E0,1.171637535E0,-4.203374982E-1
4.954610485E0,2.341212511E0,1.157750010E0,-4.107125103E-1
4.957113187E0,2.298587561E0,1.103437543E0,-3.894000053E-1
4.959615728E0,2.256099939E0,1.018324971E0,-3.554374874E-1
4.962118189E0,2.197525024E0,9.204249978E-1,-3.139125109E-1
4.964620880E0,2.126300097E0,8.097375035E-1,-2.606999874E-1
4.967123420E0,2.044349909E0,6.725124717E-1,-2.043250054E-1
4.969626124E0,1.953874946E0,5.234624743E-1,-1.361249983E-1
4.972128588E0,1.863399982E0,3.840374947E-1,-4.784999788E-2
4.974631124E0,1.782549977E0,2.574000061E-1,5.541250110E-2
4.977133817E0,1.706925035E0,1.467124969E-1,1.671999991E-1
4.979636372E0,1.642024994E0,5.527500063E-2,2.745875120E-1
4.982138834E0,1.593075037E0,-7.562499959E-3,3.715249896E-1
4.984641524E0,1.556912541E0,-8.662499487E-3,4.577375054E-1
4.987144065E0,1.529274940E0,4.881250113E-2,5.311625004E-1
4.989646774E0,1.509062529E0,1.531749964E-1,6.012874842E-1
4.992149237E0,1.498337507E0,3.000249863E-1,6.715499759E-1
4.994651774E0,1.490912437E0,4.776749909E-1,7.438749671E-1
4.997154466E0,1.477025032E0,6.426749825E-1,8.174374700E-1
4.999657007E0,1.448287487E0,7.544624805E-1,8.951249719E-1
5.002159697E0,1.418587446E0,7.917249799E-1,9.706124663E-1
5.004662160E0,1.395074964E0,7.416750193E-1,1.047199965E0
5.007164697E0,1.383387446E0,6.171000004E-1,1.110037446E0
5.009667389E0,1.379124999E0,4.522374868E-1,1.149362445E0
5.012169935E0,1.387650013E0,2.701874971E-1,1.168612480E0
5.014672625E0,1.417487502E0,5.527500063E-2,1.172875047E0
5.017175089E0,1.479225039E0,-1.766874939E-1,1.156787515E0
5.019677625E0,1.552649975E0,-4.087874889E-1,1.133412480E0
5.022180317E0,1.635699987E0,-6.418499947E-1,1.102612495E0
5.024682858E0,1.733600020E0,-8.855000138E-1,1.063150048E0
5.027185548E0,1.833562493E0,-1.146199942E0,1.020662546E0
5.029688012E0,1.945349932E0,-1.404837489E0,9.811999798E-1
