"Time (s)","Linear Acceleration x (m/s^2)","Linear Acceleration y (m/s^2)","Linear Acceleration z (m/s^2)"
3.453754000E-2,-1.659333706E-2,7.674886584E-1,2.897644043E-1
3.704000200E-2,-4.215180874E-2,7.873021364E-1,2.700033188E-1
3.954269400E-2,4.069328308E-2,7.728734612E-1,2.762689590E-1
4.204523200E-2,3.822541237E-2,7.223383188E-1,2.923784256E-1
4.454791400E-2,5.231547356E-2,6.472601891E-1,2.683753967E-1
4.705037700E-2,7.250785828E-2,6.375437975E-1,2.485933304E-1
4.955291400E-2,1.516267061E-1,5.868770480E-1,1.936759949E-1
5.205560600E-2,2.294946909E-1,5.137925744E-1,1.117458344E-1
5.455814500E-2,2.982418537E-1,4.608178735E-1,1.249036789E-1
5.706060600E-2,3.149795532E-1,4.558193684E-1,1.019220352E-1
5.956329600E-2,3.377004266E-1,3.737746179E-1,7.294464111E-2
6.206583700E-2,3.714995980E-1,3.375432193E-1,3.004074097E-3
6.456852100E-2,3.194525242E-1,3.156105578E-1,1.525878906E-5
6.707106200E-2,3.646320105E-1,2.698668838E-1,2.825737000E-2
6.957352300E-2,3.832315207E-1,2.292032093E-1,-5.653285980E-2
7.207621400E-2,3.731325865E-1,2.058541030E-1,-1.003322601E-1
7.457877700E-2,4.161583781E-1,9.071703255E-2,-8.904838562E-2
7.708146700E-2,2.434872389E-1,1.627144665E-1,-4.471683502E-2
7.958393100E-2,2.289991379E-1,1.441305578E-1,-1.243915558E-1
8.208646700E-2,2.037620544E-1,1.955107152E-1,-9.588813782E-2
8.458914400E-2,1.192011833E-1,3.053672910E-1,-1.189851761E-1
8.709168400E-2,1.141468287E-1,3.499997556E-1,-9.695911407E-2
8.959437400E-2,1.464926004E-1,3.658331931E-1,-7.856082916E-2
9.209683800E-2,4.299879074E-2,3.940071464E-1,-6.192970276E-2
9.459960900E-2,7.760155201E-2,4.330493212E-1,-5.038261414E-2
9.710207300E-2,1.725225449E-1,4.186340570E-1,-9.918689728E-2
9.960461100E-2,2.821594477E-1,3.971640170E-1,-1.142387390E-1
1.021073020E-1,2.862272859E-1,3.940273523E-1,-1.816730499E-1
1.046097640E-1,2.573745251E-1,3.750376999E-1,-1.940231323E-1
1.071123010E-1,2.157410383E-1,4.063274860E-1,-2.183494568E-1
1.096149930E-1,1.704059839E-1,4.407578111E-1,-2.376995087E-1
1.121175330E-1,9.412419796E-2,4.652615786E-1,-2.229604721E-1
1.146202430E-1,6.309998035E-2,4.798720479E-1,-2.232055664E-1
1.171227060E-1,6.800401211E-2,4.756474197E-1,-1.853570938E-1
1.196252430E-1,8.085024357E-2,4.453860521E-1,-1.526060104E-1
1.221279350E-1,9.750401974E-2,4.481491446E-1,-1.239175797E-1
1.246305030E-1,1.361261606E-1,4.609970152E-1,-1.501550674E-1
1.271331940E-1,1.045249701E-1,4.070529938E-1,-1.654415131E-1
1.296356570E-1,1.550359726E-1,3.870646954E-1,-2.008380890E-1
1.321381940E-1,1.713879108E-1,3.641093671E-1,-2.281274796E-1
1.346408760E-1,1.618084908E-1,3.905684352E-1,-2.425851822E-1
1.371434170E-1,9.677648544E-2,3.729688227E-1,-2.786083221E-1
1.396458780E-1,4.688978195E-2,3.838747442E-1,-2.288694382E-1
1.421485680E-1,3.619313240E-2,4.006109238E-1,-2.070102692E-1
1.446511600E-1,7.561743259E-2,3.870088160E-1,-1.521348953E-1
1.471538500E-1,6.643438339E-2,3.873386979E-1,-1.402778625E-1
1.496563140E-1,4.062175751E-2,3.813226521E-1,-1.164770126E-1
1.521588500E-1,6.942510605E-2,4.062401652E-1,-8.052253723E-2
1.546615620E-1,8.549070358E-2,4.437585473E-1,-8.364391327E-2
1.571641020E-1,9.664928913E-2,4.150581360E-1,-4.086971283E-2
1.596665640E-1,4.733610153E-2,4.583939314E-1,4.973411560E-3
1.621692680E-1,9.342670441E-3,4.735933244E-1,3.386974335E-2
1.646718080E-1,-5.599904060E-2,4.431952238E-1,9.783267975E-2
1.671744990E-1,-5.651807785E-2,4.448121786E-1,1.917829514E-1
1.696770390E-1,-5.728423595E-2,4.261586666E-1,2.435474396E-1
1.721797290E-1,-6.042373180E-2,4.124085903E-1,2.244739532E-1
1.746822700E-1,-2.888250351E-2,4.054091573E-1,1.961908340E-1
1.771847650E-1,-6.774544716E-3,4.407696128E-1,1.669416428E-1
1.796874560E-1,-6.190121174E-2,4.598962665E-1,1.396007538E-1
1.821899960E-1,-7.339370251E-2,4.308238328E-1,9.211826324E-2
1.846926870E-1,-4.734098911E-2,4.393777847E-1,5.267906189E-2
1.871951500E-1,-4.652476311E-2,4.635692835E-1,4.724597931E-2
1.896977060E-1,-3.802084923E-2,4.265461564E-1,1.177501678E-2
1.922003980E-1,-1.055086851E-1,4.533750415E-1,8.258819580E-3
1.947029380E-1,-9.330070019E-2,4.545978308E-1,-7.628917694E-2
1.972054000E-1,-3.912234306E-2,4.749395847E-1,-6.052684784E-2
1.997080560E-1,-4.650688171E-2,4.780767858E-1,-5.918121338E-2
2.022105970E-1,-4.330098629E-2,4.334110916E-1,-5.619621277E-2
2.047132870E-1,-5.070102215E-2,4.897614121E-1,-7.569599152E-2
2.072158270E-1,-1.167982817E-1,5.080699921E-1,-9.126281738E-2
2.097182840E-1,-9.898924828E-2,5.322952271E-1,-6.092548370E-2
2.122209740E-1,-1.316659451E-1,5.383832455E-1,-5.334472656E-2
2.147235150E-1,-7.059037685E-2,5.031743646E-1,-1.788043976E-2
2.172262050E-1,-5.145359039E-2,4.824190736E-1,-2.141761780E-2
2.197287030E-1,-2.659881115E-2,4.784842730E-1,5.030632019E-3
2.222314700E-1,2.192604542E-2,4.850314558E-1,3.040599823E-2
2.247339330E-1,1.150617599E-1,4.734843075E-1,5.768775940E-3
2.272364720E-1,1.100362539E-1,4.460305572E-1,7.079124451E-3
2.297389280E-1,1.546774507E-1,4.032436907E-1,-2.573966980E-3
2.322416960E-1,1.571880579E-1,3.959437609E-1,-2.723312378E-2
2.347441590E-1,6.112730503E-2,4.297345877E-1,-5.485248566E-2
2.372468490E-1,-1.583909988E-2,4.349451065E-1,-1.073417664E-1
2.397493800E-1,-8.585166931E-2,4.516708255E-1,-5.797767639E-2
2.422520700E-1,-1.284674406E-1,4.919941723E-1,3.406524658E-3
2.447546110E-1,-2.359758615E-1,4.978313446E-1,3.671646118E-4
2.472570720E-1,-2.345789671E-1,5.059103370E-1,-1.152992249E-2
2.497597830E-1,-1.682151556E-1,4.353823364E-1,6.489181519E-2
2.522623230E-1,-7.916641235E-2,4.100750089E-1,1.114244461E-1
2.547650130E-1,-3.246057034E-2,4.067228436E-1,1.277885437E-1
2.572674770E-1,9.191024303E-2,3.214665055E-1,7.510471344E-2
2.597700270E-1,1.598939300E-1,2.364533544E-1,6.649684906E-2
2.622727200E-1,1.987264156E-1,1.926352084E-1,2.928066254E-2
2.647752600E-1,1.220653057E-1,1.517947465E-1,-3.484725952E-2
2.672779500E-1,8.859902620E-2,1.308302730E-1,-1.027460098E-1
2.697804140E-1,3.553515673E-2,7.948300987E-2,-9.076309204E-2
2.722829510E-1,1.511192322E-2,7.588247210E-2,-5.368709564E-2
2.747856430E-1,1.000106335E-2,8.746333420E-2,-7.274436951E-2
2.772881830E-1,4.319125414E-2,8.540425450E-2,-4.445075989E-2
2.797906450E-1,1.003699303E-1,3.713648021E-2,5.419731140E-3
2.822933250E-1,1.365322471E-1,9.865731001E-3,3.558731079E-2
2.847958660E-1,1.337013841E-1,3.662651032E-2,4.044342041E-2
2.872985560E-1,2.070290446E-1,3.531768918E-3,3.687572479E-2
2.898010960E-1,1.465831399E-1,4.595905542E-3,8.734512329E-2
2.923035440E-1,2.402056456E-1,-1.996895671E-2,-1.123046875E-2
2.948062340E-1,1.496185660E-1,3.412385285E-2,1.602745056E-2
2.973087750E-1,2.760827541E-3,1.090887040E-1,-5.540847778E-3
2.998114650E-1,-3.247708082E-2,7.456822693E-2,-1.021232605E-1
3.023140050E-1,-5.774199963E-2,1.640577018E-1,-1.462621689E-1
3.048165050E-1,-1.590242386E-1,3.011576235E-1,-1.258583069E-1
3.073191950E-1,-2.330660224E-1,4.090622663E-1,-1.694774628E-1
3.098217360E-1,-2.908905149E-1,4.631008506E-1,-1.903877258E-1
3.123244260E-1,-2.036498189E-1,4.878796339E-1,-1.754951477E-1
3.148269190E-1,-1.789166927E-1,5.698122382E-1,-2.395105362E-1
3.173293800E-1,-1.649062037E-1,5.861175060E-1,-2.356109619E-1
3.198320700E-1,-9.249275923E-2,5.720831156E-1,-2.455072403E-1
3.223346110E-1,-9.028136730E-3,5.379256010E-1,-3.250503540E-1
3.248373010E-1,7.654279470E-2,5.160222650E-1,-3.475580215E-1
3.273397700E-1,7.947105169E-2,4.455490112E-1,-3.502264023E-1
3.298423060E-1,1.262348890E-2,3.993279338E-1,-3.161945343E-1
3.323449990E-1,-2.056723833E-2,4.234095216E-1,-3.387584686E-1
3.348475390E-1,-3.537148237E-2,3.795019984E-1,-4.058094025E-1
3.373500060E-1,-4.080277681E-2,3.773760200E-1,-3.870992661E-1
3.398526960E-1,-5.491608381E-2,3.949939311E-1,-3.891668320E-1
3.423552360E-1,-5.960321426E-2,3.700246811E-1,-4.281625748E-1
3.448579270E-1,-4.447525740E-2,3.551595807E-1,-4.282455444E-1
3.473604720E-1,7.354855537E-3,3.817334771E-1,-4.683837891E-1
3.498629340E-1,2.507686615E-3,3.977188468E-1,-4.833955765E-1
3.523657010E-1,-4.671907425E-2,4.765210748E-1,-4.784231186E-1
3.548681640E-1,4.628914595E-2,5.263413787E-1,-5.474481583E-1
3.573708310E-1,9.518772364E-2,5.366063714E-1,-6.103239059E-1
3.598732940E-1,9.510219097E-2,5.705118775E-1,-6.022586823E-1
3.623758310E-1,4.064667225E-2,6.440391541E-1,-6.259584427E-1
3.648785230E-1,5.071628094E-2,6.397746801E-1,-6.619873047E-1
3.673810730E-1,2.910470963E-2,6.675670147E-1,-7.195587158E-1
3.698837630E-1,4.804599285E-2,7.162815332E-1,-7.815351486E-1
3.723862260E-1,4.570174217E-2,7.354862690E-1,-7.878923416E-1
3.748889940E-1,1.670205593E-2,7.721047401E-1,-7.999181747E-1
3.773914770E-1,1.632273197E-3,8.001636267E-1,-8.380079269E-1
3.798940160E-1,-3.343224525E-4,7.868999243E-1,-8.710298538E-1
3.823967060E-1,3.747880459E-3,8.363462687E-1,-8.919439316E-1
3.848992460E-1,-1.214444637E-2,8.369196653E-1,-8.679676056E-1
3.874016890E-1,-1.054930687E-2,8.701679111E-1,-8.565378189E-1
3.899043790E-1,-6.833094358E-2,8.705527782E-1,-8.156080246E-1
3.924069200E-1,-6.598275900E-2,8.621569872E-1,-7.498998642E-1
3.949096100E-1,-4.369288683E-2,8.823611736E-1,-7.068824768E-1
3.974120930E-1,-1.485723257E-2,8.699055314E-1,-6.659879684E-1
3.999146290E-1,-1.970833540E-2,8.849003911E-1,-5.460519791E-1
4.024173210E-1,3.855645657E-3,8.545212150E-1,-5.109958649E-1
4.049198620E-1,-9.172672033E-2,8.161665201E-1,-5.011291504E-1
4.074223520E-1,-3.842699528E-2,7.937058210E-1,-4.709501266E-1
4.099250430E-1,-1.248347759E-2,7.542781234E-1,-4.669055939E-1
4.124275830E-1,3.133791685E-2,6.287533045E-1,-4.688644409E-1
4.149302740E-1,1.608700156E-1,4.369606376E-1,-6.467657089E-1
4.174327900E-1,2.702254057E-2,4.369281232E-1,-8.596954346E-1
4.199352520E-1,-8.280694485E-2,5.412598252E-1,-1.163739204E0
4.224379420E-1,2.607810497E-2,1.956081688E-1,-1.233161926E0
4.249404820E-1,4.014122486E-2,1.863744855E-2,-1.520097733E0
4.274431880E-1,9.558457136E-2,3.739147782E-1,-2.153865814E0
4.299456510E-1,2.281602621E-1,4.657300115E-1,-2.283802032E0
4.324484180E-1,2.881221175E-1,4.374545813E-1,-2.003763199E0
4.349508820E-1,3.755239248E-1,4.417151511E-1,-1.602627754E0
4.374534530E-1,3.460001945E-1,4.077445865E-1,-1.326690674E0
4.399559150E-1,3.084681630E-1,3.161620796E-1,-1.239575386E0
4.424586820E-1,3.483597636E-1,1.949587017E-1,-1.174372673E0
4.449611460E-1,3.254933953E-1,1.290838867E-1,-1.072910309E0
4.474638360E-1,2.161788940E-2,1.798412651E-1,-9.939966202E-1
4.499663770E-1,-1.240268946E-1,1.928043514E-1,-9.288473129E-1
4.524690670E-1,-6.862175465E-2,8.979970217E-2,-9.198045731E-1
4.549716070E-1,6.756615639E-2,6.439748406E-2,-9.315805435E-1
4.574740690E-1,1.904863119E-1,2.632269263E-2,-1.029541016E0
4.599767830E-1,3.430613279E-1,2.364337444E-3,-1.097067833E0
4.624793240E-1,3.975871801E-1,-3.156548738E-2,-1.070115089E0
4.649820140E-1,3.592239618E-1,-1.102150381E-1,-1.078280449E0
4.674844780E-1,3.927538395E-1,-1.314172745E-1,-1.022368431E0
4.699870190E-1,2.145785093E-1,-1.022040248E-1,-9.673261642E-1
4.724897110E-1,1.705061197E-1,-1.401709020E-1,-9.902524948E-1
4.749922520E-1,2.083343267E-1,-3.693266213E-1,-9.452352524E-1
4.774947130E-1,3.589028120E-1,-2.770288885E-1,-9.940414429E-1
4.799974040E-1,4.165403843E-1,-2.191597521E-1,-1.181861877E0
4.824999580E-1,5.193871260E-1,-1.922662258E-1,-1.261559486E0
4.850026480E-1,6.760293245E-1,-1.744257510E-1,-1.331027985E0
4.875051890E-1,7.607694268E-1,-1.887243390E-1,-1.336355209E0
4.900076500E-1,6.965446472E-1,-2.569029033E-1,-1.319345474E0
4.925103560E-1,6.506166458E-1,-2.948840857E-1,-1.371038437E0
4.950128960E-1,5.766606331E-1,-2.080982924E-1,-1.257450104E0
4.975155870E-1,3.009366989E-1,-5.440574884E-2,-1.388513565E0
5.000181270E-1,2.601990700E-1,9.189084172E-2,-1.511349678E0
5.025205890E-1,2.993873358E-1,3.561427593E-1,-1.627024174E0
5.050232790E-1,3.303591013E-1,6.539062262E-1,-1.599322319E0
5.075258190E-1,3.464013338E-1,7.322224379E-1,-1.714256287E0
5.100285100E-1,4.332375526E-1,7.389104366E-1,-1.846326351E0
5.125309680E-1,5.211570263E-1,7.095063925E-1,-1.800034523E0
5.150335050E-1,5.529978275E-1,6.132780910E-1,-1.734372616E0
5.175361970E-1,4.569250345E-1,4.798969626E-1,-1.760357857E0
5.200386600E-1,4.137847424E-1,3.955906034E-1,-1.603948116E0
5.225414420E-1,3.495007753E-1,2.842234671E-1,-1.506306648E0
5.250439050E-1,2.666524649E-1,2.170768678E-1,-1.382249832E0
5.275464440E-1,2.532540560E-1,2.137766778E-1,-1.117103577E0
5.300491340E-1,2.348933220E-1,2.043443918E-1,-8.726062775E-1
5.325516900E-1,3.032083511E-1,1.559534073E-1,-5.660972595E-1
5.350543800E-1,3.820800781E-1,1.540125906E-1,-2.646951675E-1
5.375568430E-1,4.038254023E-1,1.504409015E-1,-3.586578369E-2
5.400593800E-1,4.818067551E-1,8.392196894E-2,2.296457291E-1
5.425620610E-1,5.331276655E-1,2.954906225E-2,4.819526672E-1
5.450646020E-1,6.101419926E-1,-7.936060429E-3,7.390966415E-1
5.475670630E-1,6.603914499E-1,-6.794935465E-2,1.038941383E0
5.500697530E-1,6.352813244E-1,-1.391191483E-1,1.101260185E0
5.525722990E-1,7.186299562E-1,-1.639531851E-1,1.131875992E0
5.550749890E-1,8.187309504E-1,-1.911692023E-1,1.076974869E0
5.575774530E-1,7.881290913E-1,-1.763697267E-1,9.018344879E-1
5.600799890E-1,8.079684973E-1,-1.996026635E-1,6.597194672E-1
5.625826770E-1,8.603622913E-1,-2.346539497E-1,4.116115570E-1
5.650852170E-1,8.659986258E-1,-2.581719160E-1,1.578340530E-1
5.675876790E-1,8.500282764E-1,-2.163421512E-1,-7.843685150E-2
5.700903690E-1,8.446589708E-1,-2.231018543E-1,-3.062648773E-1
5.725929040E-1,8.578830957E-1,-2.759459019E-1,-4.837207794E-1
5.750955950E-1,8.521323204E-1,-2.290252447E-1,-6.146421432E-1
5.775981350E-1,8.249782324E-1,-1.881740689E-1,-7.892389297E-1
5.801008250E-1,7.948603630E-1,-2.322142720E-1,-9.034318924E-1
5.826033230E-1,7.051602602E-1,-2.476513386E-1,-9.876003265E-1
5.851058590E-1,7.207082510E-1,-2.413162589E-1,-1.084621429E0
5.876085520E-1,7.160525322E-1,-2.428702116E-1,-1.122707367E0
5.901110920E-1,7.310633659E-1,-2.184731364E-1,-1.142023087E0
5.926135540E-1,7.759609222E-1,-1.893485188E-1,-1.167119980E0
5.951162440E-1,7.543303967E-1,-1.358799338E-1,-1.129179955E0
5.976187850E-1,8.495961428E-1,-1.483632922E-1,-1.016052246E0
6.001214750E-1,8.999654055E-1,-1.255632639E-1,-9.571018219E-1
6.026240000E-1,9.119610786E-1,-8.190441132E-2,-8.488559723E-1
6.051264620E-1,9.413254261E-1,-5.412971973E-2,-7.723255157E-1
6.076291520E-1,9.188139439E-1,-2.989178896E-2,-7.178831100E-1
6.101316930E-1,9.312486649E-1,1.965224743E-2,-6.442708969E-1
6.126344030E-1,9.935804605E-1,1.112920046E-2,-5.795717239E-1
6.151368670E-1,1.042511106E0,2.154982090E-2,-4.809923172E-1
6.176394030E-1,1.120732069E0,-3.174620867E-2,-3.990793228E-1
6.201420950E-1,1.125666618E0,-6.939232349E-2,-2.837505341E-1
6.226446360E-1,1.168353558E0,-1.296044588E-1,-1.867389679E-1
6.251473110E-1,1.168893337E0,-2.523472309E-1,-1.111536026E-1
6.276497750E-1,1.065211296E0,-4.057340026E-1,-4.989814758E-2
6.301523110E-1,9.813253880E-1,-5.189162493E-1,3.428459167E-2
6.326550030E-1,8.757228851E-1,-6.257975698E-1,5.234432220E-2
6.351575390E-1,8.960013390E-1,-6.877806783E-1,7.212924957E-2
6.376600000E-1,9.621789455E-1,-7.386772037E-1,1.202869415E-1
6.401626910E-1,9.904718399E-1,-7.944068909E-1,1.106824875E-1
6.426652310E-1,9.932432175E-1,-8.481313586E-1,4.136943817E-2
6.451678740E-1,9.586069584E-1,-9.029798508E-1,1.441001892E-3
6.476704140E-1,9.314441681E-1,-9.589263201E-1,-3.016376495E-2
6.501728760E-1,9.257578850E-1,-9.871685505E-1,-1.054506302E-1
6.526755660E-1,8.325235844E-1,-9.961118698E-1,-1.923666000E-1
6.551780970E-1,8.009221554E-1,-1.026651978E0,-2.362251282E-1
6.576807880E-1,7.692000866E-1,-1.014197946E0,-2.358894348E-1
6.601833280E-1,7.805387974E-1,-1.002197981E0,-2.604169846E-1
6.626860180E-1,6.923189163E-1,-9.913390279E-1,-3.228073120E-1
6.651884960E-1,6.105735302E-1,-9.965056777E-1,-3.750934601E-1
6.676910320E-1,5.108623505E-1,-1.039075375E0,-3.910274506E-1
6.701937250E-1,4.761676788E-1,-1.107143521E0,-3.378734589E-1
6.726962650E-1,4.241905212E-1,-1.113583446E0,-2.879781723E-1
6.751987080E-1,3.954591751E-1,-1.175891161E0,-2.369909286E-1
6.777013980E-1,4.397175312E-1,-1.186632395E0,-6.957244873E-2
6.802039390E-1,3.832702637E-1,-1.167388558E0,1.449909210E-1
6.827066290E-1,3.365321159E-1,-1.226607323E0,3.035106659E-1
6.852090870E-1,2.537505627E-1,-1.398311615E0,5.354013443E-1
6.877116240E-1,1.872444153E-1,-1.527922511E0,7.095518112E-1
6.902143160E-1,1.653473377E-1,-1.725314617E0,1.132841110E0
6.927168570E-1,1.915345192E-1,-1.911484361E0,1.559353828E0
6.952195420E-1,1.614928246E-1,-2.097342491E0,1.840069771E0
6.977220060E-1,1.717677116E-1,-2.227552414E0,2.169414520E0
7.002245420E-1,1.729142666E-1,-2.346004486E0,2.511165619E0
7.027272340E-1,1.769733429E-1,-2.464370012E0,2.684409142E0
7.052297750E-1,1.671752930E-1,-2.553633213E0,2.674103737E0
7.077322360E-1,1.325581074E-1,-2.574343681E0,2.427628517E0
7.102349270E-1,1.620433331E-1,-2.603466511E0,2.207049370E0
7.127374670E-1,2.228786945E-1,-2.530869961E0,1.928974152E0
7.152401570E-1,2.691347599E-1,-2.401201963E0,1.312052727E0
7.177426210E-1,3.669061661E-1,-2.214888096E0,6.379852295E-1
7.202451570E-1,5.017373562E-1,-2.018882036E0,1.824846268E-1
7.227478500E-1,6.655156612E-1,-1.757702589E0,-2.321443558E-1
7.252503950E-1,6.878499985E-1,-1.520949244E0,-5.636806488E-1
7.277528570E-1,6.248888969E-1,-1.254232049E0,-8.577365875E-1
7.302555470E-1,5.772068501E-1,-1.014636397E0,-1.119541645E0
7.327580880E-1,4.745457172E-1,-8.768880367E-1,-1.145898819E0
7.352607590E-1,3.759191036E-1,-7.998067141E-1,-1.188824654E0
7.377632990E-1,2.985320091E-1,-6.831651926E-1,-1.445158005E0
7.402657610E-1,3.154284954E-1,-6.399782896E-1,-8.818845749E-1
7.427685280E-1,5.292222500E-1,-3.818529844E-1,5.055332184E-1
7.452709770E-1,9.466116428E-1,2.629897594E-1,2.046797752E0
7.477736670E-1,7.117378712E-1,1.061154842E0,3.067170143E0
7.502761300E-1,-4.811501503E-2,1.257954240E0,2.271491051E0
7.527788980E-1,1.086425781E-1,1.106975675E0,1.007127762E0
7.552813420E-1,9.183073044E-1,9.229257703E-1,3.802919388E-1
7.577838810E-1,1.576242089E0,7.315627933E-1,5.304527283E-2
7.602865710E-1,1.726159334E0,4.112862349E-1,-4.753112793E-2
7.627891120E-1,1.533437014E0,1.070044041E-1,-3.226146698E-1
7.652915540E-1,1.344397664E0,-1.430859566E-1,-6.914081573E-1
7.677942440E-1,1.305915356E0,-3.897318840E-1,-6.074829102E-1
7.702967850E-1,1.480606914E0,-6.109398603E-1,-3.002033234E-1
7.727994750E-1,1.542646289E0,-8.126310110E-1,-6.996822357E-2
7.753019390E-1,1.495631933E0,-9.529914856E-1,1.776351929E-1
7.778044750E-1,1.443950415E0,-1.041530609E0,4.392852783E-1
7.803071670E-1,1.449524999E0,-1.105578661E0,6.836385727E-1
7.828097080E-1,1.502630949E0,-1.099782705E0,8.381557465E-1
7.853121550E-1,1.602301717E0,-1.123005033E0,9.192180634E-1
7.878148460E-1,1.667441726E0,-1.049272418E0,1.018022537E0
7.903173860E-1,1.750083566E0,-1.043355227E0,1.148457527E0
7.928200770E-1,1.794743776E0,-1.003500819E0,1.220378876E0
7.953225980E-1,1.858183503E0,-9.035383463E-1,1.313758850E0
7.978250600E-1,1.860081673E0,-8.644162416E-1,1.281549454E0
8.003277500E-1,1.839642644E0,-9.022952318E-1,1.076491356E0
8.028302900E-1,1.917607307E0,-8.981059790E-1,9.052829742E-1
8.053330330E-1,1.917835593E0,-9.346004725E-1,5.657672882E-1
8.078354960E-1,1.895652890E0,-9.468331337E-1,2.687387466E-1
8.103382630E-1,1.892483354E0,-9.741824865E-1,-1.766109467E-2
8.128407270E-1,1.933038712E0,-9.705908298E-1,-2.666511536E-1
8.153432460E-1,1.939093113E0,-9.236477613E-1,-5.036802292E-1
8.178457080E-1,1.879059672E0,-8.525633812E-1,-7.919492722E-1
8.203484750E-1,1.897073865E0,-7.229889631E-1,-1.059709549E0
8.228511680E-1,1.857973933E0,-6.314258575E-1,-1.146075249E0
8.253536260E-1,1.781115294E0,-5.060665607E-1,-9.438066483E-1
8.278561650E-1,1.605335832E0,-3.969321251E-1,4.981422424E-2
8.303588550E-1,1.259765148E0,-2.280983925E-1,2.103176117E-1
8.328613950E-1,1.068952322E0,-8.311283588E-2,-3.170089722E-1
8.353638860E-1,1.128100872E0,8.407235146E-3,-3.131713867E-1
8.378665760E-1,1.229069710E0,4.657423496E-2,-2.710428238E-1
8.403691170E-1,1.265159965E0,1.326513290E-1,-4.628677368E-1
8.428718070E-1,1.296665788E0,1.912939548E-1,-8.147916794E-1
8.453742800E-1,1.263579369E0,2.290761471E-1,-1.114656448E0
8.478768160E-1,1.264562488E0,2.219489813E-1,-1.345437527E0
8.503795080E-1,1.240849733E0,1.932426691E-1,-1.609058857E0
8.528820490E-1,1.285105109E0,1.289421320E-1,-1.879564762E0
8.553845050E-1,1.322713256E0,-1.649379730E-3,-2.104634285E0
8.578871960E-1,1.299255729E0,-8.036899567E-2,-2.305912971E0
8.603897360E-1,1.397733688E0,-1.742463112E-1,-2.381829739E0
8.628924260E-1,1.420211077E0,-3.265593052E-1,-2.395497799E0
8.653949010E-1,1.439492464E0,-4.111406803E-1,-2.442005634E0
8.678974370E-1,1.440285325E0,-5.109081268E-1,-2.493378639E0
8.704001300E-1,2.126222134E0,-7.377681732E-1,-2.765897274E0
8.729026700E-1,3.313338995E0,-7.015166283E-1,-2.561449051E0
8.754053700E-1,2.845353603E0,-7.448589802E-1,-2.805625916E0
8.779079100E-1,2.696757793E0,-5.871853828E-1,-2.933198452E0
8.804103720E-1,2.840033054E0,-5.766022205E-1,-3.220382214E0
8.829130620E-1,3.094823599E0,-7.173066139E-1,-3.456429482E0
8.854156070E-1,4.418852806E0,-1.272015095E0,-3.386178493E0
8.879180690E-1,5.365171432E0,-1.676764727E0,-3.305669785E0
8.904208360E-1,4.560754776E0,-1.541768074E0,-3.761244774E0
8.929233000E-1,3.873254776E0,-1.490124702E0,-3.969125748E0
8.954259900E-1,3.502589941E0,-1.506481409E0,-3.868659019E0
8.979284830E-1,2.896563530E0,-1.432232618E0,-3.694771290E0
9.004312500E-1,2.216899872E0,-1.383284330E0,-3.829405785E0
9.029337130E-1,1.588864565E0,-1.342580318E0,-3.912520885E0
9.054362520E-1,1.272317290E0,-1.168611765E0,-4.180319786E0
9.079389420E-1,1.509185553E0,-1.036041260E0,-4.379254341E0
9.104414830E-1,1.550478220E0,-9.393897057E-1,-4.193574905E0
9.129439440E-1,1.390934706E0,-8.866713047E-1,-4.169530869E0
9.154466340E-1,1.177076817E0,-8.911538124E-1,-3.999762535E0
9.179491800E-1,9.169713259E-1,-8.277025223E-1,-3.749095917E0
9.204518700E-1,7.145477533E-1,-8.441119194E-1,-3.391665936E0
9.229543340E-1,5.395625830E-1,-8.571105003E-1,-3.082330227E0
9.254568700E-1,3.472682238E-1,-8.610084057E-1,-2.772016525E0
9.279595870E-1,2.330616713E-1,-8.435711861E-1,-2.453702927E0
9.304621270E-1,9.021854401E-2,-8.232991695E-1,-2.122430801E0
9.329648170E-1,-2.628874779E-2,-7.731630802E-1,-1.807243824E0
9.354672810E-1,-1.633994579E-1,-7.701001167E-1,-1.508194447E0
9.379698120E-1,-1.524350643E-1,-7.873129845E-1,-1.239223003E0
9.404725050E-1,-1.583924294E-1,-8.063607216E-1,-9.493236542E-1
9.429750450E-1,-1.506710052E-1,-7.734537125E-1,-7.026653290E-1
9.454777350E-1,-8.574366570E-2,-7.822246552E-1,-6.083669662E-1
9.479802080E-1,-2.306818962E-2,-7.520868778E-1,-5.107612610E-1
9.504827440E-1,-4.235267639E-3,-6.934030056E-1,-4.260053635E-1
9.529854370E-1,2.946710587E-2,-6.337847710E-1,-3.572778702E-1
9.554879000E-1,7.713389397E-2,-6.069483757E-1,-3.708181381E-1
9.579906920E-1,6.984102726E-2,-5.473959446E-1,-3.216190338E-1
9.604931550E-1,1.855015755E-2,-4.687151909E-1,-2.945241928E-1
9.629956940E-1,-3.706264496E-2,-4.412705898E-1,-2.824001312E-1
9.654983840E-1,-1.509118080E-1,-3.793447018E-1,-2.571811676E-1
9.680009330E-1,-2.510013580E-1,-3.284261227E-1,-2.278194427E-1
9.705036240E-1,-3.741616011E-1,-3.161001205E-1,-2.136688232E-1
9.730060870E-1,-4.991519451E-1,-2.918100357E-1,-2.199935913E-1
9.755086240E-1,-6.541026831E-1,-1.964409351E-1,-1.930007935E-1
9.780113350E-1,-8.157315254E-1,-1.412448883E-1,-1.834487915E-1
9.805138750E-1,-9.243782759E-1,-1.119408607E-1,-2.183723450E-1
9.830163370E-1,-1.020541906E0,-7.724666595E-2,-2.701931000E-1
9.855190270E-1,-1.168283582E0,-1.686716080E-2,-3.146009445E-1
9.880215630E-1,-1.298184872E0,1.779890060E-2,-4.157123566E-1
9.905242530E-1,-1.361443758E0,3.058910370E-4,-4.821567535E-1
9.930267170E-1,-1.413763404E0,-2.547907829E-2,-5.404729843E-1
9.955292530E-1,-1.417609096E0,-6.229805946E-2,-5.848236084E-1
9.980319310E-1,-1.443613052E0,-1.081628799E-1,-6.533441544E-1
1.000534472E0,-1.420029044E0,-2.794551849E-1,-7.636528015E-1
1.003036933E0,-1.399134278E0,-3.629803658E-1,-8.209285736E-1
1.005539624E0,-1.394851089E0,-5.150790215E-1,-8.785986900E-1
1.008042164E0,-1.387387276E0,-6.682243347E-1,-1.021395206E0
1.010544854E0,-1.443911552E0,-7.993407249E-1,-1.125813007E0
1.013047318E0,-1.477716446E0,-9.098334312E-1,-1.242400169E0
1.015549855E0,-1.577011585E0,-9.796414375E-1,-1.365168571E0
1.018052547E0,-1.701378584E0,-1.065977097E0,-1.434555531E0
1.020555087E0,-1.798051357E0,-1.130078316E0,-1.585373878E0
1.023057778E0,-1.972172737E0,-1.211679935E0,-1.718331337E0
1.025560318E0,-2.153772831E0,-1.278575420E0,-1.828878880E0
1.028062780E0,-2.340274096E0,-1.288736820E0,-1.931963444E0
1.030565470E0,-2.539833069E0,-1.357371807E0,-2.034269333E0
1.033068010E0,-2.726974010E0,-1.388977051E0,-2.112376690E0
1.035570701E0,-2.848680973E0,-1.410591125E0,-2.159584045E0
1.038073241E0,-2.947523832E0,-1.409601688E0,-2.187828064E0
1.040575703E0,-2.993093729E0,-1.355398655E0,-2.219127655E0
1.043078388E0,-2.987031937E0,-1.243948936E0,-2.256790161E0
1.045580852E0,-2.995770216E0,-1.182934284E0,-2.264994144E0
1.048083619E0,-2.907997608E0,-1.072963715E0,-2.214550018E0
1.050586082E0,-2.887659311E0,-1.034056664E0,-2.266797066E0
1.053088593E0,-2.824411631E0,-1.007205009E0,-2.253655910E0
1.055591283E0,-2.803005934E0,-1.055593967E0,-2.166707516E0
1.058093824E0,-2.845246315E0,-1.095081806E0,-2.100599289E0
1.060596285E0,-2.957795382E0,-1.091788769E0,-1.992050648E0
1.063098966E0,-3.083874464E0,-1.150095940E0,-1.833995819E0
1.065601507E0,-3.261037588E0,-1.224095821E0,-1.637742996E0
1.068104197E0,-3.444500923E0,-1.324038029E0,-1.449105263E0
1.070606738E0,-3.690684795E0,-1.407009125E0,-1.243609428E0
1.073109189E0,-4.011532784E0,-1.434879303E0,-1.041088104E0
1.075611880E0,-4.293521881E0,-1.455831051E0,-8.582220078E-1
1.078114420E0,-4.643865585E0,-1.460870266E0,-6.542201042E-1
1.080617110E0,-4.941237450E0,-1.448089600E0,-3.661432266E-1
1.083119559E0,-5.254037857E0,-1.418760777E0,-1.427550316E-1
1.085622095E0,-5.569042683E0,-1.375834942E0,7.680273056E-2
1.088124788E0,-5.832410812E0,-1.306442261E0,2.684721947E-1
1.090627328E0,-6.086525917E0,-1.234981060E0,4.831533432E-1
1.093129999E0,-6.320257187E0,-1.132232666E0,7.177152634E-1
1.095632463E0,-6.474689484E0,-1.008032322E0,9.976630211E-1
1.098134999E0,-6.742813587E0,-1.070419788E0,1.113241196E0
1.100637692E0,-6.952893734E0,-1.068540096E0,1.332729816E0
1.103140232E0,-7.161792278E0,-1.048288345E0,1.620921135E0
1.105642938E0,-7.328181267E0,-8.635168076E-1,1.981004715E0
1.108145401E0,-7.544448853E0,-8.228507042E-1,2.348871231E0
1.110647938E0,-7.811279297E0,-7.633805275E-1,2.625028610E0
1.113150401E0,-7.993862152E0,-6.440153122E-1,3.029628277E0
1.115653172E0,-8.209001541E0,-5.140204430E-1,3.339492798E0
1.118155636E0,-8.358570099E0,-3.902134895E-1,3.714324474E0
1.120658326E0,-8.513069153E0,-3.184242249E-1,4.049699306E0
1.123160867E0,-8.597332001E0,-2.384405136E-1,4.236536026E0
1.125663548E0,-8.682982445E0,-2.277927399E-1,4.443489552E0
1.128166012E0,-8.737226486E0,-2.142415047E-1,4.522451401E0
1.130668548E0,-8.736019135E0,-1.798048019E-1,4.661558628E0
1.133171240E0,-8.675819397E0,-1.548676491E-1,4.842938423E0
1.135673757E0,-8.554456711E0,-1.134729385E-1,4.961179256E0
1.138176218E0,-8.414575577E0,-8.971834183E-2,5.090301991E0
1.140678909E0,-8.217466354E0,-2.657127380E-2,5.206143379E0
1.143181449E0,-8.011194229E0,-4.605150223E-2,5.320580006E0
1.145684100E0,-7.777581215E0,-1.063437462E-1,5.337363720E0
1.148186564E0,-7.477063179E0,-6.122589111E-2,5.338292122E0
1.150689100E0,-7.167376041E0,-7.160806656E-2,5.327508926E0
1.153191793E0,-6.921982288E0,-1.345119476E-1,5.237727165E0
1.155694309E0,-6.702494144E0,-2.028169632E-1,5.103999138E0
1.158197000E0,-6.464450359E0,-2.536077499E-1,5.038546562E0
1.160699463E0,-6.296676636E0,-3.003339767E-1,4.801104069E0
1.163202000E0,-6.007805824E0,-3.583488464E-1,4.625290394E0
1.165704692E0,-5.646751404E0,-3.780584335E-1,4.480353355E0
1.168207232E0,-5.343706608E0,-3.640484810E-1,4.177832603E0
1.170709694E0,-4.903664112E0,-3.603329659E-1,3.898143291E0
1.173212461E0,-4.522003174E0,-3.390932083E-1,3.658347130E0
1.175714925E0,-4.180614471E0,-3.229312897E-1,3.347497940E0
1.178217610E0,-3.794974327E0,-3.319425583E-1,3.121541977E0
1.180720150E0,-3.471951485E0,-3.015208244E-1,2.854744911E0
1.183222841E0,-3.262859821E0,-2.908377647E-1,2.613253593E0
1.185725304E0,-3.068809032E0,-2.587394714E-1,2.455837250E0
1.188227841E0,-3.028208256E0,-1.644883156E-1,2.274767876E0
1.190730538E0,-2.959344864E0,-5.702733994E-2,2.190923691E0
1.193233079E0,-2.960066795E0,3.464365005E-2,2.070643902E0
1.195735540E0,-2.946526527E0,1.213555336E-1,1.955832958E0
1.198238230E0,-3.009116650E0,3.030223846E-1,1.868500710E0
1.200740766E0,-2.978725433E0,4.176282883E-1,1.804785728E0
1.203243456E0,-3.007676125E0,5.496282578E-1,1.666785717E0
1.205745920E0,-3.013638496E0,6.736874580E-1,1.736176729E0
1.208248456E0,-3.136538029E0,8.145890236E-1,1.769844532E0
1.210751125E0,-3.213910580E0,8.525896072E-1,1.840685368E0
1.213253665E0,-3.289233208E0,9.455852509E-1,1.964596748E0
1.215756127E0,-3.392367840E0,9.665179253E-1,2.047322035E0
1.218258817E0,-3.510206223E0,9.901633263E-1,2.109023333E0
1.220761381E0,-3.602797031E0,9.819269180E-1,2.165374756E0
1.223264072E0,-3.692218781E0,9.863719940E-1,2.283309221E0
1.225766612E0,-3.709271431E0,9.534034729E-1,2.377891779E0
1.228269074E0,-3.660914898E0,9.598422050E-1,2.539114475E0
1.230771755E0,-3.653506279E0,1.021086693E0,2.628222704E0
1.233274295E0,-3.557545185E0,1.023467064E0,2.710786581E0
1.235776986E0,-3.454001427E0,1.084084988E0,2.794398785E0
1.238279449E0,-3.355777264E0,1.075025082E0,2.905919552E0
1.240782217E0,-3.282037735E0,1.060291290E0,2.963345528E0
1.243284689E0,-3.196521759E0,1.029870987E0,3.091427565E0
1.245787228E0,-3.139348507E0,9.468665123E-1,3.141607761E0
1.248289918E0,-3.138341427E0,8.660368919E-1,3.169658899E0
1.250792458E0,-3.144521713E0,7.386536598E-1,3.196882963E0
1.253294944E0,-3.131820202E0,6.414628029E-1,3.173404217E0
1.255797634E0,-3.163849354E0,5.435366631E-1,3.167359114E0
1.258300175E0,-3.195617676E0,4.488587379E-1,3.120965004E0
1.260802865E0,-3.194195747E0,3.764286041E-1,3.024050951E0
1.263305309E0,-3.182229042E0,2.830772400E-1,2.942722797E0
1.265807846E0,-3.161068439E0,2.078127861E-1,2.850284576E0
1.268310538E0,-3.095386505E0,1.898474693E-1,2.713397741E0
1.270813079E0,-3.034420967E0,1.608033180E-1,2.538032293E0
1.273315540E0,-3.029113293E0,1.651463509E-1,2.346369267E0
1.275818231E0,-2.937359333E0,1.160435677E-1,2.213330984E0
1.278320771E0,-2.850225449E0,2.964496613E-2,2.028943300E0
1.280823461E0,-2.743248940E0,6.823492050E-2,1.773190975E0
1.283325911E0,-2.629199028E0,3.639554977E-2,1.600329638E0
1.285828447E0,-2.453423977E0,4.004573822E-2,1.389931917E0
1.288331140E0,-2.185391426E0,-4.009723663E-2,1.209334373E0
1.290833680E0,-1.956026554E0,-4.767942429E-2,9.110107422E-1
1.293336350E0,-1.645676136E0,-1.235094070E-1,7.895405293E-1
1.295838814E0,-1.404657841E0,-1.326847076E-1,6.252975464E-1
1.298341581E0,-1.137546539E0,-2.189126015E-1,5.255789757E-1
1.300844045E0,-8.781838417E-1,-2.508020401E-1,4.548299313E-1
1.303346593E0,-6.904387474E-1,-2.588319778E-1,4.327297211E-1
1.305849284E0,-5.615983009E-1,-2.142391205E-1,3.783931732E-1
1.308351747E0,-5.296869278E-1,-2.232980728E-1,2.863084078E-1
1.310854284E0,-5.187287331E-1,-2.546205521E-1,3.365879059E-1
1.313356995E0,-5.096487999E-1,-2.551531792E-1,3.826630116E-1
1.315859535E0,-5.741171837E-1,-2.402195930E-1,4.502345324E-1
1.318362226E0,-6.759419441E-1,-1.889786720E-1,5.512622595E-1
1.320864689E0,-7.464218140E-1,-1.444196701E-1,6.704938412E-1
1.323367245E0,-9.014754295E-1,-1.025276184E-1,7.807079554E-1
1.325869937E0,-1.055085182E0,-3.845071793E-2,9.417309761E-1
1.328372477E0,-1.025603771E0,2.286386490E-2,1.389950275E0
1.330874939E0,-8.367023468E-1,4.785013199E-2,2.257198811E0
1.333377648E0,-1.019203663E0,1.008982658E-1,2.410284042E0
1.335880189E0,-1.077084064E0,1.989421844E-1,2.509376287E0
1.338382879E0,-1.091661930E0,3.088583946E-1,2.612659454E0
1.340885343E0,-1.201574802E0,3.648138046E-1,2.692805290E0
1.343387879E0,-1.282901764E0,4.933271408E-1,2.690511227E0
1.345890552E0,-1.278471470E0,5.597686768E-1,2.804115534E0
1.348393093E0,-1.417325020E0,6.068768501E-1,2.932481766E0
1.350895554E0,-1.679404736E0,6.709318161E-1,3.005232334E0
1.353398245E0,-2.049583912E0,7.585735321E-1,2.854547024E0
1.355900766E0,-2.329949379E0,8.952102661E-1,2.183315277E0
1.358403457E0,-2.381509781E0,1.006406307E0,1.671244383E0
1.360905997E0,-2.476460934E0,1.001673222E0,2.284360409E0
1.363408459E0,-2.823411465E0,1.060623169E0,2.033410311E0
1.365911134E0,-2.992128372E0,1.066242218E0,1.856918097E0
1.368413674E0,-2.973077774E0,1.064142227E0,1.875818014E0
1.370916136E0,-2.978178024E0,1.069242001E0,1.928918123E0
1.373418903E0,-3.040127754E0,1.090241909E0,1.978868008E0
1.375921381E0,-3.060077667E0,1.198242188E0,2.079818010E0
1.378424071E0,-2.882178307E0,1.277142048E0,2.392868042E0
1.380926611E0,-2.337973118E0,1.316807747E0,3.435527086E0
1.383429302E0,-1.750813961E0,1.466763020E0,5.119656086E0
1.385931765E0,-1.454940319E0,1.680876732E0,5.517858982E0
1.388434259E0,-1.078777313E0,1.836609364E0,6.313732147E0
1.390936951E0,-7.767024040E-1,2.062990189E0,6.980319023E0
1.393439492E0,-4.068255424E-1,2.247958660E0,7.366537094E0
1.395942182E0,3.055715561E-2,2.452231407E0,7.991090775E0
1.398444645E0,3.914051056E-1,2.600787878E0,8.563938141E0
1.400947182E0,4.703593254E-1,2.691621780E0,8.067523956E0
1.403449874E0,5.419363976E-1,2.751552343E0,7.594485760E0
1.405952415E0,5.948162079E-1,2.822519302E0,7.275735378E0
1.408454861E0,4.453039169E-1,2.798974037E0,6.495685101E0
1.410957552E0,3.634843826E-1,2.772817373E0,5.669838905E0
1.413460092E0,2.047619820E-1,2.741074085E0,5.131745815E0
1.415962782E0,2.342700958E-3,2.667800903E0,4.486933231E0
1.418465237E0,-2.873563766E-1,2.603243589E0,3.812499762E0
1.420967773E0,-4.918022156E-1,2.449536800E0,3.272974491E0
1.423470466E0,-6.776304245E-1,2.331514835E0,2.736992598E0
1.425973006E0,-8.342928886E-1,2.195716143E0,2.290305138E0
1.428475468E0,-1.046136379E0,2.065820694E0,2.090445042E0
1.430978182E0,-1.235041618E0,1.926652431E0,1.737010717E0
1.433480722E0,-1.487565994E0,1.778118610E0,1.455456495E0
1.435983413E0,-1.604265213E0,1.675770283E0,1.317501307E0
1.438485876E0,-1.709756374E0,1.552117825E0,1.173013210E0
1.440988620E0,-1.792560101E0,1.470499039E0,1.078413129E0
1.443491083E0,-1.881093025E0,1.452441216E0,1.062026024E0
1.445993622E0,-1.896485806E0,1.404764175E0,1.016586781E0
1.448496312E0,-1.754365444E0,1.317798138E0,9.288598299E-1
1.450998876E0,-1.737840176E0,1.235215187E0,7.257621288E-1
1.453501338E0,-1.740946770E0,1.241593361E0,7.265177965E-1
1.456004028E0,-1.691564560E0,1.211853981E0,7.201771140E-1
1.458506569E0,-1.678615570E0,1.053680897E0,6.175011396E-1
1.461009278E0,-1.590587616E0,9.657301903E-1,6.066998243E-1
1.463511741E0,-1.483456612E0,9.269423485E-1,5.801501870E-1
1.466014278E0,-1.591732979E0,8.298234940E-1,5.749282241E-1
1.468516970E0,-1.618578911E0,7.837924957E-1,6.339375377E-1
1.471019511E0,-1.414247513E0,7.240581512E-1,5.676205158E-1
1.473522201E0,-1.267718315E0,6.222562790E-1,5.726052523E-1
1.476024665E0,-1.098044395E0,5.557570457E-1,6.016373038E-1
1.478527201E0,-7.307434082E-1,5.089187622E-1,5.709396601E-1
1.481029893E0,-6.243972778E-1,4.991173744E-1,5.116531849E-1
1.483532434E0,-6.449375153E-1,4.213461876E-1,5.440785885E-1
1.486034890E0,-7.188758850E-1,4.357380867E-1,5.430985689E-1
1.488537581E0,-7.152938843E-1,2.908840179E-1,4.330975711E-1
1.491040121E0,-6.683549881E-1,1.533918381E-1,1.887332350E-1
1.493542811E0,-7.688694000E-1,1.186485291E-1,1.673963517E-1
1.496045289E0,-7.707204819E-1,1.717185974E-2,1.310902238E-1
1.498547826E0,-9.389314651E-1,-9.539842606E-2,-2.027505636E-2
1.501050518E0,-1.094236374E0,-1.663513184E-1,-1.716925502E-1
1.503553058E0,-1.183887482E0,-2.546591759E-1,-1.498576701E-1
1.506055468E0,-1.498221397E0,-3.163528442E-1,-4.002811313E-1
1.508558235E0,-1.600804329E0,-3.653159142E-1,-7.128540277E-1
1.511060699E0,-7.165393829E-1,-6.297831535E-1,-3.916947246E-1
1.513563389E0,-3.112363815E-1,-6.031422615E-1,-3.309983611E-1
1.516065929E0,-7.283878326E-2,-4.696316719E-1,-3.136292696E-1
1.518568610E0,5.205936432E-1,-4.474196434E-1,-1.501424909E-1
1.521071073E0,1.004619598E0,-3.609333038E-1,7.962971926E-2
1.523573610E0,1.228446484E0,-2.338161469E-1,5.372118950E-2
1.526076302E0,1.462734699E0,-9.503078461E-2,5.490303040E-2
1.528578876E0,1.627727032E0,6.566953659E-2,8.059710264E-2
1.531081338E0,1.858268261E0,2.376608849E-1,1.408107281E-1
1.533584028E0,2.178239822E0,3.892469406E-1,3.132672906E-1
1.536086569E0,2.424667358E0,4.967241287E-1,3.194001019E-1
1.538589274E0,2.738204002E0,5.708811283E-1,1.660997868E-1
1.541091738E0,3.098142624E0,7.410824299E-1,4.736632109E-2
1.543594274E0,3.707335949E0,8.344695568E-1,2.029273510E-1
1.546096966E0,4.192639351E0,8.402795792E-1,2.844235301E-1
1.548599507E0,4.570297718E0,8.646225929E-1,5.840550661E-1
1.551101968E0,5.025156975E0,8.837254047E-1,8.880372047E-1
1.553604659E0,5.258373260E0,9.238622189E-1,1.424385667E0
1.556107199E0,5.438418388E0,9.251518250E-1,1.632461786E0
1.558609923E0,5.616326332E0,9.215633869E-1,1.723780155E0
1.561112386E0,5.610182762E0,9.531445503E-1,1.790484667E0
1.563614923E0,5.434094429E0,8.699131012E-1,1.730424881E0
1.566117615E0,5.302942753E0,7.988092899E-1,1.677776575E0
1.568620141E0,5.065329552E0,6.876294613E-1,1.604082346E0
1.571122832E0,4.732230663E0,6.109564304E-1,1.515819550E0
1.573625295E0,4.545767784E0,4.939041138E-1,1.304983258E0
1.576127832E0,4.373727798E0,3.329377174E-1,1.164991856E0
1.578630533E0,4.292246819E0,1.492252350E-1,9.934229255E-1
1.581132997E0,4.243207455E0,-1.166415215E-2,8.985875845E-1
1.583635764E0,3.999985695E0,-9.558010101E-2,7.792202830E-1
1.586138227E0,3.926005840E0,-2.430920601E-1,6.609950066E-1
1.588640766E0,3.712632656E0,-3.112061024E-1,6.458522677E-1
1.591143227E0,3.506633282E0,-3.590731621E-1,5.984659195E-1
1.593645995E0,3.401412010E0,-4.368951321E-1,5.724095702E-1
1.596148458E0,3.086797714E0,-4.136147499E-1,5.103034973E-1
1.598651168E0,2.901031494E0,-3.826227188E-1,4.071334004E-1
1.601153709E0,2.887520790E0,-4.414603710E-1,2.551810741E-1
1.603656399E0,2.906263828E0,-4.955224991E-1,2.125661373E-1
1.606158863E0,2.890361309E0,-4.856925011E-1,1.860899925E-1
1.608661408E0,2.696781635E0,-3.782024384E-1,2.095522881E-1
1.611164101E0,2.497519493E0,-3.109431267E-1,1.980973482E-1
1.613666641E0,2.475742817E0,-2.418322563E-1,2.029212713E-1
1.616169103E0,2.677632332E0,-2.049338818E-1,3.420138955E-1
1.618671793E0,2.788947582E0,-1.644470692E-1,4.503918290E-1
1.621174324E0,2.731668949E0,-3.405618668E-2,6.379145384E-1
1.623677015E0,2.716490746E0,7.609128952E-2,7.496312857E-1
1.626179478E0,2.838587761E0,1.264271736E-1,8.632859588E-1
1.628682015E0,2.888681412E0,2.107903957E-1,8.779362440E-1
1.631184692E0,3.065481663E0,2.493200302E-1,8.756320477E-1
1.633687232E0,3.015718460E0,3.149137497E-1,8.993518353E-1
1.636189694E0,2.816947460E0,4.261524677E-1,1.060062766E0
1.638692384E0,2.668053627E0,5.737032890E-1,1.327197552E0
1.641194925E0,2.430908680E0,7.340168953E-1,1.710498571E0
1.643697620E0,2.238983154E0,7.582056522E-1,1.687015891E0
1.646200161E0,2.106626987E0,7.920343876E-1,1.421834946E0
1.648702622E0,2.049126625E0,9.189226627E-1,1.544251442E0
1.651205389E0,1.980500221E0,1.145116091E0,1.838659883E0
1.653707872E0,1.986534119E0,1.146724224E0,1.779810667E0
1.656210562E0,1.964458942E0,1.188406467E0,1.901587725E0
1.658713026E0,1.931015491E0,1.173420429E0,2.060768604E0
1.661215793E0,1.900251865E0,1.196925402E0,2.178810120E0
1.663718257E0,1.786080360E0,1.129727364E0,2.098858833E0
1.666220795E0,1.718616009E0,1.056101799E0,2.141911983E0
1.668723485E0,1.626803875E0,1.019224882E0,2.252370596E0
1.671226026E0,1.508733273E0,1.068666458E0,2.291322470E0
1.673728544E0,1.382204056E0,1.060825109E0,2.200063944E0
1.676231235E0,1.163368702E0,9.516959190E-1,1.965015888E0
1.678733775E0,1.000207901E0,8.194961548E-1,1.825136065E0
1.681236465E0,8.255224228E-1,7.072427273E-1,1.650422215E0
1.683738967E0,6.451330185E-1,4.763107300E-1,1.373131275E0
1.686241503E0,5.052709579E-1,2.763884068E-1,1.181875706E0
1.688744196E0,4.075479507E-1,1.099359989E-1,9.944365025E-1
1.691246736E0,2.233200073E-1,-7.102084160E-2,8.412201405E-1
1.693749198E0,9.627056122E-2,-2.480208874E-1,6.901701689E-1
1.696251888E0,-7.531642914E-2,-3.802843094E-1,2.104570270E-1
1.698754429E0,-4.431962967E-1,-6.599712372E-1,-7.233995199E-1
1.701257119E0,-6.821460724E-1,-8.539209366E-1,-1.461399555E0
1.703759602E0,-6.169347763E-1,-9.895451069E-1,-7.177015543E-1
1.706262139E0,-6.916418076E-1,-1.050189972E0,-1.230033517E0
1.708764831E0,-8.395223618E-1,-1.093567848E0,-1.452239156E0
1.711267372E0,-9.415550232E-1,-1.147652626E0,-1.693068504E0
1.713769829E0,-9.489316940E-1,-1.242966652E0,-1.837133884E0
1.716272519E0,-9.585685730E-1,-1.193063736E0,-1.788895011E0
1.718775060E0,-8.602972031E-1,-1.141808748E0,-1.850944996E0
1.721277750E0,-6.753540039E-1,-1.047766447E0,-1.793846130E0
1.723780291E0,-3.151264191E-1,-9.314577579E-1,-1.799428701E0
1.726282732E0,1.082420349E-3,-9.335355759E-1,-2.170041323E0
1.728785423E0,2.263126373E-1,-8.751463890E-1,-2.315949678E0
1.731287963E0,6.535053253E-1,-7.388470173E-1,-2.122126341E0
1.733790653E0,1.173405170E0,-6.168968678E-1,-1.902226448E0
1.736293194E0,1.698334694E0,-3.940305710E-1,-1.742436528E0
1.738795675E0,2.272809505E0,-1.724100113E-1,-1.523871779E0
1.741298366E0,2.746770382E0,2.335119247E-2,-1.234417439E0
1.743800906E0,3.224809170E0,2.284264565E-1,-9.753468633E-1
1.746303596E0,3.602564335E0,3.798220158E-1,-7.828523517E-1
1.748806064E0,3.773864746E0,4.233355522E-1,-6.729393601E-1
1.751308600E0,3.942012310E0,4.762418270E-1,-5.818442106E-1
1.753811293E0,3.923882008E0,5.610961914E-1,-2.290722132E-1
1.756313833E0,4.093560219E0,7.032496929E-1,6.990408897E-2
1.758816291E0,4.155361652E0,6.405792236E-1,2.618912160E-1
1.761318981E0,3.894661427E0,5.072522163E-1,4.929241836E-1
1.763821522E0,3.709099770E0,4.528925419E-1,8.462996483E-1
1.766324212E0,3.480971336E0,2.710349560E-1,1.013150215E0
1.768826660E0,3.097009182E0,-4.264497757E-2,1.085159063E0
1.771329197E0,2.873959064E0,-2.076449394E-1,1.286159039E0
1.773831889E0,2.456965923E0,-3.444199562E-1,1.316048145E0
1.776334430E0,1.969651222E0,-4.365196228E-1,1.157981157E0
1.778836877E0,1.425857067E0,-5.183258057E-1,9.522296190E-1
1.781339568E0,1.159622669E0,-5.826716423E-1,5.586047769E-1
1.783842108E0,7.500948906E-1,-5.652747154E-1,1.001010537E-1
1.786344798E0,2.712717056E-1,-6.305146217E-1,-1.690166891E-1
1.788847257E0,-1.492319107E-1,-6.959810257E-1,-3.375146985E-1
1.791349793E0,-5.834283829E-1,-8.430681229E-1,-5.236610174E-1
1.793852486E0,-1.229654312E0,-1.019625664E0,-9.133665562E-1
1.796355026E0,-2.044141769E0,-1.261987209E0,-1.245016813E0
1.798857730E0,-2.817931175E0,-1.541182518E0,-1.468614936E0
1.801360194E0,-3.359180450E0,-1.795464039E0,-1.468292475E0
1.803862961E0,-3.764172554E0,-2.060565948E0,-1.100617766E0
1.806365425E0,-3.906266212E0,-2.229332447E0,-7.464355230E-1
1.808867977E0,-3.827033043E0,-2.336941242E0,-3.667851686E-1
1.811370439E0,-3.476440430E0,-2.446218491E0,2.520050108E-2
1.813873206E0,-3.013605118E0,-2.497966290E0,5.057250261E-1
1.816375670E0,-2.432712555E0,-2.423887730E0,9.157401323E-1
1.818878351E0,-1.727175713E0,-2.180375099E0,1.288864493E0
1.821380891E0,-6.527118683E-1,-1.873783588E0,1.606434941E0
1.823883582E0,2.629795074E-1,-1.623763084E0,1.852078438E0
1.826386045E0,9.252696037E-1,-1.409085274E0,1.914737701E0
1.828888587E0,1.408689022E0,-1.104628086E0,1.815908670E0
1.831391279E0,1.663043022E0,-8.943920135E-1,1.823035359E0
1.833893819E0,1.561772346E0,-8.295011520E-1,1.572555184E0
1.836396281E0,1.597572327E0,-7.213330269E-1,1.015476346E0
1.838898951E0,1.764238834E0,-5.950078964E-1,8.359431624E-1
1.841401492E0,1.776613712E0,-6.482691765E-1,4.397035539E-1
1.843904182E0,1.529116631E0,-7.807617188E-1,8.601468801E-2
1.846406646E0,1.133901119E0,-9.315109253E-1,-4.250772595E-1
1.848909153E0,8.072180748E-1,-9.867329597E-1,-9.151262045E-1
1.851411845E0,7.304592133E-1,-9.253044128E-1,-1.111763954E0
1.853914386E0,1.041842461E0,-8.788719177E-1,-1.037564874E0
1.856416847E0,1.846237183E0,-5.918240547E-1,-8.201938272E-1
1.858919519E0,2.560039520E0,-2.058377266E-1,-6.503758430E-1
1.861422059E0,2.778915405E0,5.418252945E-2,-4.705402255E-1
1.863924750E0,2.706121922E0,2.130703926E-1,-2.951791883E-2
1.866427213E0,2.376509190E0,3.212294579E-1,4.234196246E-1
1.868929701E0,2.022382259E0,6.311483383E-1,7.506869435E-1
1.871432393E0,1.871597290E0,8.561511040E-1,1.234814763E0
1.873934933E0,1.782938004E0,9.389028549E-1,1.788142443E0
1.876437624E0,1.811551094E0,8.177485466E-1,1.603399277E0
1.878940078E0,1.528441429E0,6.374201775E-1,6.357028484E-1
1.881442615E0,8.387899399E-1,5.344667435E-1,6.379726529E-1
1.883945307E0,1.097898483E-1,2.404665947E-1,4.110226631E-1
1.886447847E0,-4.515204430E-1,-1.534814835E-1,2.790158987E-2
1.888950538E0,-1.244343758E0,-4.853816032E-1,1.456218958E-2
1.891453010E0,-1.897653103E0,-8.192234039E-1,3.376531601E-2
1.893955547E0,-2.059840202E0,-8.846392632E-1,3.061848283E-1
1.896458010E0,-2.073074341E0,-8.654770851E-1,6.488148570E-1
1.898960778E0,-1.627528191E0,-9.575309753E-1,8.745381236E-1
1.901463217E0,-1.329701900E0,-8.292136192E-1,1.035971045E0
1.903965907E0,-1.196658611E0,-6.398935318E-1,1.022994757E0
1.906468448E0,-9.507427216E-1,-4.869866371E-1,1.268791437E0
1.908971138E0,-7.850041389E-1,-3.787093163E-1,1.239065886E0
1.911473597E0,-7.551345825E-1,-2.086086273E-1,1.145655751E0
1.913976133E0,-7.906765938E-1,-2.416601181E-1,1.070763469E0
1.916478826E0,-6.886363029E-1,-1.900148392E-1,9.198527336E-1
1.918981366E0,-4.463238716E-1,-1.027526855E-1,8.367626667E-1
1.921483828E0,-1.399664879E-1,-1.623582840E-2,7.634222507E-1
1.923986485E0,-2.009482384E-1,-7.972097397E-2,5.041255951E-1
1.926489025E0,-3.791785240E-1,-1.395335197E-1,4.715178013E-1
1.928991716E0,-2.151870728E-1,-2.473645210E-1,4.624314606E-1
1.931494179E0,-4.009723663E-3,-1.910533905E-1,-8.647549152E-2
1.933996716E0,7.220315933E-2,-1.104164124E-1,-5.408470035E-1
1.936499393E0,1.946058273E-1,-7.958412170E-3,-7.930884361E-1
1.939001933E0,3.326091766E-1,-6.145477295E-3,-8.835850358E-1
1.941504395E0,2.716650963E-1,1.746301651E-1,-1.094416857E0
1.944007085E0,1.847052574E-1,8.235836029E-2,-1.395331025E0
1.946509645E0,4.397716522E-1,3.289842606E-2,-1.056063652E0
1.949012335E0,6.098008156E-1,1.324729919E-1,-9.728176594E-1
1.951514799E0,7.559757233E-1,1.858286858E-1,-7.339548469E-1
1.954017335E0,8.230323792E-1,3.457660675E-1,-4.205340743E-1
1.956520032E0,9.657545090E-1,3.897209167E-1,-4.548752308E-1
1.959022573E0,8.935818672E-1,3.666138649E-1,-4.296128452E-1
1.961525263E0,8.376317024E-1,2.397141457E-1,-4.566128552E-1
1.964027727E0,9.568047523E-1,3.620185852E-1,-5.324073434E-1
1.966530254E0,1.104354382E0,4.087991714E-1,-4.307010472E-1
1.969032946E0,9.031715393E-1,2.325267792E-1,-9.017473459E-2
1.971535487E0,9.657878876E-1,5.609216690E-1,-2.451983690E-1
1.974038177E0,7.445693016E-1,4.226374626E-1,-6.074444056E-1
1.976540641E0,-6.194238663E-1,-4.948439598E-1,-4.176779687E-1
1.979043177E0,-1.426959515E0,-9.062414169E-1,-6.679630280E-2
1.981545870E0,-1.400460720E0,-1.093522549E0,-1.212840378E-1
1.984048410E0,-1.816349030E0,-1.831697941E0,3.417257965E-1
1.986550857E0,-2.318837166E0,-2.257979393E0,6.850145459E-1
1.989053547E0,-2.412963867E0,-2.160240650E0,4.116554260E-1
1.991556087E0,-2.347563267E0,-2.285303116E0,2.682538331E-1
1.994058778E0,-2.577663422E0,-2.714303970E0,1.893538237E-1
1.996561246E0,-2.930068970E0,-2.812720299E0,1.323350668E-1
1.999063783E0,-2.843537807E0,-2.851996422E0,1.081182361E-1
2.001566475E0,-2.631728649E0,-2.917206764E0,1.220482588E-2
2.004069015E0,-2.244401455E0,-2.871377945E0,-9.487360716E-2
2.006571434E0,-1.738646030E0,-2.818288803E0,-4.873095453E-1
2.009074124E0,-1.406548023E0,-2.753636360E0,-7.961395979E-1
2.011576665E0,-9.122409821E-1,-2.549227715E0,-7.642818093E-1
2.014079355E0,-4.068760872E-1,-2.282639503E0,-7.896522284E-1
2.016581828E0,4.456043243E-3,-1.983100891E0,-9.984600544E-1
2.019084364E0,3.307180405E-1,-1.735466957E0,-1.205489635E0
2.021587056E0,4.988703728E-1,-1.612298012E0,-1.270260096E0
2.024089597E0,4.609079361E-1,-1.457921982E0,-1.143402696E0
2.026592053E0,5.372014046E-1,-1.316841125E0,-1.070379019E0
2.029094821E0,5.992574692E-1,-1.075605392E0,-8.381859064E-1
2.031597284E0,5.058059692E-1,-8.077421188E-1,-5.897414684E-1
2.034099975E0,4.063906670E-1,-6.714839935E-1,-4.568190277E-1
2.036602545E0,2.961187363E-1,-6.022510529E-1,-3.447650671E-1
2.039105235E0,2.079086304E-1,-4.866313934E-1,-1.353200674E-1
2.041607776E0,6.736850739E-2,-4.549951553E-1,8.092656732E-3
2.044110237E0,-4.827070236E-2,-4.665117264E-1,1.861303002E-1
2.046612928E0,2.604007721E-2,-4.463005066E-1,4.654145241E-1
2.049115468E0,1.229596138E-1,-3.917989731E-1,5.787310600E-1
2.051617930E0,1.688876152E-1,-2.973165512E-1,7.064250708E-1
2.054120620E0,3.641719818E-1,-1.153726578E-1,8.202869296E-1
2.056623160E0,4.399914742E-1,1.716613770E-3,8.664250374E-1
2.059125861E0,4.131579399E-1,1.013174057E-1,7.758276463E-1
2.061628324E0,3.646278381E-1,3.465528488E-1,5.833880901E-1
2.064130861E0,1.998224258E-1,4.290018082E-1,5.182633400E-1
2.066633553E0,-9.255361557E-2,2.569732666E-1,5.742508173E-1
2.069136094E0,-2.751474380E-1,2.010087967E-1,5.746157169E-1
2.071638808E0,-2.467021942E-1,2.437887192E-1,6.294534206E-1
2.074141271E0,-2.157878876E-2,2.542266846E-1,6.173515916E-1
2.076643808E0,2.329664230E-1,1.178426743E-1,5.717002749E-1
2.079146500E0,3.776021004E-1,-5.290889740E-2,6.233628988E-1
2.081649026E0,3.444738388E-1,-2.558526993E-1,5.621821880E-1
2.084151487E0,3.995237350E-1,-3.268032074E-1,4.022822678E-1
2.086654178E0,2.534241676E-1,-4.228029251E-1,2.771822512E-1
2.089156718E0,-1.579804420E-1,-4.526014328E-1,2.524004877E-1
2.091659432E0,-4.938406944E-1,-5.106649399E-1,3.628486097E-1
2.094161896E0,-6.049971581E-1,-3.857316971E-1,4.550791979E-1
2.096664663E0,-6.270394325E-1,-3.028974533E-1,5.518512130E-1
2.099167127E0,-7.423048019E-1,-1.775979996E-1,7.032420635E-1
2.101669665E0,-8.018827438E-1,-1.010236740E-1,9.324821234E-1
2.104172355E0,-7.417778969E-1,1.256761551E-1,1.070144415E0
2.106674819E0,-6.506690979E-1,2.223558426E-1,1.064572930E0
2.109177355E0,-5.811104774E-1,2.771453857E-1,8.627324700E-1
2.111680029E0,-5.077180862E-1,4.056015015E-1,5.780555010E-1
2.114182569E0,-4.777631760E-1,4.786586761E-1,3.350591063E-1
2.116685260E0,-4.273018837E-1,6.327271461E-1,1.523261666E-1
2.119187723E0,-2.947850227E-1,7.165307999E-1,-1.775182188E-1
2.121690241E0,-2.882804871E-1,8.562021255E-1,-3.523995578E-1
2.124192933E0,-4.022946358E-1,9.771523476E-1,-5.948272943E-1
2.126695473E0,-2.849345207E-1,1.064919472E0,-8.141741753E-1
2.129197935E0,-2.516598701E-1,1.129260063E0,-8.934973478E-1
2.131700620E0,-4.797801971E-1,1.143929005E0,-9.999305010E-1
2.134203161E0,-7.183551788E-1,1.014211178E0,-9.459504485E-1
2.136705851E0,-6.802811623E-1,9.430909157E-1,-7.353717685E-1
2.139208314E0,-6.439390182E-1,1.045927525E0,-7.627694011E-1
2.141710841E0,-7.033843994E-1,1.098254204E0,-7.503377199E-1
2.144213533E0,-8.362088203E-1,1.007413864E0,-7.151198983E-1
2.146716074E0,-9.067502022E-1,9.644412994E-1,-7.402729392E-1
2.149218535E0,-7.967901230E-1,8.874063492E-1,-7.481256127E-1
2.151721231E0,-6.779179573E-1,8.995780945E-1,-8.253945112E-1
2.154223771E0,-4.567766190E-1,1.050109386E0,-9.246781468E-1
2.156726461E0,-3.829355240E-1,1.040430546E0,-7.625607252E-1
2.159229002E0,-3.014297485E-1,1.030472755E0,-4.677520990E-1
2.161731434E0,-2.749643326E-1,1.037166119E0,-1.740792394E-1
2.164234125E0,-2.058157921E-1,9.443845749E-1,6.029182673E-2
2.166736665E0,-2.636842728E-1,9.192013741E-1,4.509556293E-2
2.169239127E0,-2.763023376E-1,8.732008934E-1,6.544083357E-2
2.171741894E0,-2.553024292E-1,8.081007004E-1,1.039081812E-2
2.174244357E0,-3.142361641E-1,8.215236664E-1,-1.214658022E-1
2.176747092E0,-3.781261444E-1,8.619799614E-1,-1.099092960E-1
2.179249555E0,-4.739003181E-1,8.096570969E-1,-1.864674985E-1
2.181752323E0,-5.624728203E-1,8.036303520E-1,-2.435627580E-1
2.184254786E0,-5.448312759E-1,8.565754890E-1,-2.268489301E-1
2.186757305E0,-4.864835739E-1,1.072580814E0,-2.054120898E-1
2.189259995E0,-3.903098106E-1,1.110632896E0,-1.742962003E-1
2.191762535E0,-4.748950005E-1,1.177929401E0,-1.810575426E-1
2.194264997E0,-5.136361122E-1,1.174752712E0,-2.656221986E-1
2.196767687E0,-6.573820114E-1,1.115521431E0,-1.246397793E-1
2.199270233E0,-6.417360306E-1,9.651846886E-1,-6.350108981E-2
2.201772923E0,-5.798497200E-1,8.284826279E-1,-3.939032555E-2
2.204275387E0,-6.216726303E-1,5.664906502E-1,9.989580512E-2
2.206777923E0,-5.029544830E-1,4.071359634E-1,2.674278617E-1
2.209280615E0,-4.318857193E-1,1.675367355E-1,3.412857652E-1
2.211783156E0,-2.033977509E-1,-2.139062881E-1,2.766010761E-1
2.214285617E0,2.280616760E-1,-7.566270828E-1,2.323358357E-1
2.216788308E0,9.161679745E-1,-1.354896545E0,1.573011875E-1
2.219290834E0,1.405316353E0,-1.763287544E0,1.966959834E-1
2.221793524E0,1.273158073E0,-1.914831161E0,3.234595656E-1
2.224295988E0,5.360646248E-1,-1.671028137E0,4.902788103E-1
2.226798524E0,-1.800613403E-1,-1.435487747E0,5.446726084E-1
2.229301207E0,-2.559714317E-1,-1.267066956E0,6.141477227E-1
2.231803747E0,-2.432327271E-1,-1.163864136E0,7.165286541E-1
2.234306209E0,-3.730201721E-1,-1.278433800E0,7.383118868E-1
2.236808899E0,-4.375104904E-1,-1.438686371E0,7.433846593E-1
2.239311435E0,-3.378248215E-1,-1.447447777E0,6.548122168E-1
2.241814125E0,-3.510375023E-1,-1.488656044E0,6.581994295E-1
2.244316665E0,-2.161149979E-1,-1.466027260E0,7.115482092E-1
2.246819127E0,2.346324921E-2,-1.172646523E0,6.732941866E-1
2.249321798E0,3.156933784E-1,-1.016194344E0,6.207509041E-1
2.251824339E0,3.762979507E-1,-9.473533630E-1,6.341243982E-1
2.254327029E0,2.350387573E-1,-7.596473694E-1,6.162761450E-1
2.256829569E0,3.216438293E-1,-7.152490616E-1,5.347527266E-1
2.259332040E0,4.620623589E-1,-7.183790207E-1,5.471695662E-1
2.261834730E0,6.517724991E-1,-7.105741501E-1,5.233732462E-1
2.264337271E0,6.924262047E-1,-8.107490540E-1,4.735161662E-1
2.266839961E0,7.913687229E-1,-7.421588898E-1,5.121735334E-1
2.269342416E0,8.542861938E-1,-6.125431061E-1,5.754480958E-1
2.271844952E0,9.277300835E-1,-5.487260818E-1,5.291295052E-1
2.274347644E0,9.782209396E-1,-5.474548340E-1,6.604053974E-1
2.276850185E0,1.073894978E0,-4.949407578E-1,6.466388702E-1
2.279352646E0,1.065424442E0,-4.400310516E-1,5.759176016E-1
2.281855351E0,1.166038275E0,-3.985824585E-1,5.424003601E-1
2.284357891E0,1.188668489E0,-3.494119644E-1,3.936884403E-1
2.286860582E0,1.139746189E0,-3.520221710E-1,3.584493399E-1
2.289363045E0,1.152581930E0,-4.066047668E-1,3.393024206E-1
2.291865587E0,1.072814226E0,-4.190540314E-1,3.810778856E-1
2.294368279E0,1.029323339E0,-2.728776932E-1,2.931823134E-1
2.296870819E0,1.086767912E0,-2.675781250E-1,3.149459958E-1
2.299373281E0,1.103530407E0,-2.386035919E-1,3.404504061E-1
2.301875966E0,1.170455217E0,-2.149677277E-1,2.118407488E-1
2.304378507E0,1.220245361E0,-2.043399811E-1,1.159549356E-1
2.306881197E0,1.216207743E0,-2.117481232E-1,1.031556726E-1
2.309383661E0,1.067685127E0,-2.841320038E-1,-2.462267876E-4
2.311886418E0,9.545745850E-1,-3.289966583E-1,-4.290604591E-2
2.314388881E0,8.861918449E-1,-4.025325775E-1,8.672869205E-2
2.316891420E0,7.987568378E-1,-3.818197250E-1,-1.282197237E-2
2.319394110E0,7.621154785E-1,-5.029211044E-1,-9.587126970E-2
2.321896651E0,6.727278233E-1,-5.086431503E-1,-1.825761497E-1
2.324399131E0,5.977387428E-1,-4.524011612E-1,-2.921440899E-1
2.326901821E0,4.192416668E-1,-6.065473557E-1,-4.333530068E-1
2.329404362E0,3.407979012E-1,-7.019281387E-1,-4.346088767E-1
2.331907052E0,4.148707390E-1,-6.982955933E-1,-3.501478434E-1
2.334409536E0,7.707586288E-1,-8.889703751E-1,-3.666537106E-1
2.336912072E0,1.377030849E0,-1.500348091E0,-4.096852541E-1
2.339414765E0,1.754250765E0,-1.659162521E0,-5.101642013E-1
2.341917305E0,1.631664991E0,-1.303623199E0,-5.667122602E-1
2.344419767E0,1.468742609E0,-8.761596680E-1,-6.083690524E-1
2.346922457E0,1.071082830E0,-6.185541153E-1,-2.897491753E-1
2.349424997E0,3.561639786E-1,-3.133125305E-1,9.344774485E-2
2.351927688E0,1.394634247E-1,-3.589153290E-2,2.580590844E-1
2.354430151E0,1.549518108E-1,1.564607620E-1,3.625346422E-1
2.356932683E0,3.747799397E-1,2.824182510E-1,4.638008475E-1
2.359435375E0,5.482375622E-1,3.600511551E-1,3.254301548E-1
2.361937915E0,5.537898540E-1,4.770088196E-1,1.153681278E-1
2.364440377E0,4.288201332E-1,5.487432480E-1,5.855202675E-2
2.366943067E0,2.963066101E-1,6.265821457E-1,1.684968472E-1
2.369445608E0,3.082699776E-1,7.214984894E-1,1.678190827E-1
2.371948298E0,2.852134705E-1,7.565050125E-1,1.080332398E-1
2.374450762E0,2.716064453E-1,7.064218521E-1,1.580739021E-2
2.376953529E0,2.015647888E-1,6.084918976E-1,-1.139662862E-1
2.379455976E0,2.267789841E-1,4.946584702E-1,-1.463710964E-1
2.381958515E0,1.710007191E-1,5.197715759E-1,-1.824052930E-1
2.384461205E0,1.341629028E-1,6.615505219E-1,-2.664115131E-1
2.386963746E0,5.933547020E-2,7.332239151E-1,-3.570944667E-1
2.389466231E0,-2.308106422E-2,6.567792892E-1,-4.902507961E-1
2.391968921E0,-1.876940727E-1,5.726079941E-1,-3.557014465E-1
2.394471462E0,-3.463501930E-1,6.390838623E-1,-3.152777255E-1
2.396974152E0,-5.767591000E-1,8.477878571E-1,-3.577428758E-1
2.399476621E0,-7.246849537E-1,1.116252899E0,-3.057592809E-1
2.401979157E0,-5.917313099E-1,1.382546425E0,-3.609343767E-1
2.404481850E0,-5.883715153E-1,1.413612843E0,-3.603245616E-1
2.406984390E0,-5.914347172E-1,1.498875141E0,-2.929668427E-1
2.409486867E0,-6.174931526E-1,1.653112888E0,-4.337432981E-1
2.411989557E0,-5.265653133E-1,1.761480808E0,-4.225991070E-1
2.414492097E0,-4.800345898E-1,1.715995789E0,-4.630867839E-1
2.416994788E0,-3.884267807E-1,1.612828255E0,-3.991024196E-1
2.419497251E0,-3.373434544E-1,1.761547565E0,-3.864492178E-1
2.422000032E0,-3.336417675E-1,1.837960720E0,-4.120672345E-1
2.424502496E0,-5.424234867E-1,2.122995853E0,-3.908322453E-1
2.427005034E0,-8.144655228E-1,2.497717857E0,-3.450789452E-1
2.429507496E0,-8.874177933E-1,2.708468914E0,-1.877597272E-1
2.432010167E0,-8.960292339E-1,2.682055473E0,4.114994407E-2
2.434512708E0,-8.663408756E-1,2.557589531E0,-1.436391473E-2
2.437015398E0,-8.883090019E-1,2.298518181E0,3.634154797E-2
2.439517939E0,-9.331245422E-1,2.171148300E0,6.630021334E-2
2.442020414E0,-9.600181580E-1,2.146348953E0,-4.403471947E-2
2.444523104E0,-9.263837337E-1,2.063364983E0,-1.131445169E-1
2.447025645E0,-9.187984467E-1,1.911013126E0,-4.090455174E-2
2.449528335E0,-1.068522930E0,1.859952927E0,-1.274063587E-1
2.452030881E0,-1.007788420E0,1.799160004E0,-1.683216393E-1
2.454533342E0,-1.033761263E0,1.722860813E0,-3.022819757E-2
2.457036033E0,-1.030616045E0,1.653524399E0,1.004064083E-2
2.459538573E0,-1.107952833E0,1.530350685E0,-8.095061779E-2
2.462041268E0,-1.018617392E0,1.481342793E0,-1.114224195E-1
2.464543732E0,-1.110174656E0,1.376910210E0,-1.080234349E-1
2.467046268E0,-1.195293188E0,1.258145332E0,-2.430828810E-1
2.469548961E0,-1.312421799E0,1.126688004E0,-4.581074715E-1
2.472051501E0,-1.350778818E0,1.006903648E0,-5.668893456E-1
2.474553963E0,-1.293550968E0,9.508771896E-1,-5.146469474E-1
2.477056653E0,-1.254634380E0,7.292327881E-1,-4.393415451E-1
2.479559193E0,-1.310881376E0,4.022769928E-1,-5.937021375E-1
2.482061903E0,-1.242969751E0,-1.452436447E-1,-6.571369171E-1
2.484564366E0,-1.377398968E0,-6.004753113E-1,-7.878074050E-1
2.487066903E0,-1.472060442E0,-1.135197639E0,-8.088088036E-1
2.489569595E0,-1.559539795E0,-1.821807861E0,-7.696427703E-1
2.492072131E0,-1.674147606E0,-2.525435448E0,-6.901599169E-1
2.494574592E0,-1.612215042E0,-3.196868896E0,-6.659466624E-1
2.497077282E0,-1.787384272E0,-3.869161606E0,-6.132274866E-1
2.499579823E0,-1.931627512E0,-4.384510040E0,-5.219118595E-1
2.502082494E0,-1.931940794E0,-4.917827606E0,-4.848085642E-1
2.504584958E0,-1.881266594E0,-5.433142662E0,-2.682610452E-1
2.507087725E0,-1.984456062E0,-5.777469635E0,1.368424296E-2
2.509590189E0,-1.850874186E0,-6.249880791E0,8.594894409E-2
2.512092717E0,-1.875150442E0,-6.316137314E0,1.293893158E-1
2.514595179E0,-1.902400494E0,-6.197622299E0,2.349367142E-1
2.517097946E0,-1.746472120E0,-6.019026756E0,3.043759167E-1
2.519600409E0,-1.624295473E0,-5.411542892E0,5.226932764E-1
2.522103134E0,-1.496643305E0,-4.834341049E0,6.976817846E-1
2.524605674E0,-1.463652372E0,-4.043365479E0,7.862158418E-1
2.527108136E0,-1.324752331E0,-3.389365196E0,7.242657542E-1
2.529610826E0,-1.329702377E0,-2.610415459E0,5.402157903E-1
2.532113337E0,-1.024698973E0,-1.952644348E0,4.601802230E-1
2.534616028E0,-5.106194019E-1,-1.466986656E0,8.577901125E-1
2.537118568E0,-3.727912903E-1,-8.866624832E-1,1.005979419E0
2.539621030E0,-2.947962284E-1,-3.891048431E-1,8.092739582E-1
2.542123720E0,-2.842121124E-1,8.221435547E-2,6.012707949E-1
2.544626261E0,-2.483546734E-1,5.246238708E-1,4.756804407E-1
2.547128951E0,-2.394278049E-1,8.221292496E-1,3.095978796E-1
2.549631414E0,-3.311460018E-1,1.193904877E0,1.601971388E-1
2.552133970E0,-5.000996590E-1,1.590337276E0,8.769735694E-2
2.554636662E0,-6.065776348E-1,1.910959721E0,-1.183181852E-1
2.557139203E0,-6.295099258E-1,2.225161076E0,-1.450792998E-1
2.559641664E0,-7.092311382E-1,2.408903122E0,-2.079419494E-1
2.562144365E0,-9.426014423E-1,2.318293095E0,-2.378933430E-1
2.564646905E0,-9.494333267E-1,1.970830917E0,-3.394426703E-1
2.567149595E0,-1.208146334E0,1.968123436E0,-5.587198734E-1
2.569652136E0,-1.229531765E0,2.120523453E0,-6.298179626E-1
2.572154587E0,-1.252261639E0,2.162797451E0,-6.301223040E-1
2.574657278E0,-1.228310823E0,2.129920006E0,-5.818929672E-1
2.577159818E0,-1.299152851E0,2.024755955E0,-5.687925816E-1
2.579662508E0,-1.437379360E0,1.929258823E0,-5.292630196E-1
2.582164977E0,-1.654756069E0,2.135132313E0,-5.716030002E-1
2.584667513E0,-1.720546007E0,2.476403713E0,-5.877745748E-1
2.587170206E0,-1.741440296E0,2.591004372E0,-5.353010893E-1
2.589672669E0,-1.879450798E0,2.616187096E0,-5.516101718E-1
2.592175436E0,-1.912836313E0,2.823130131E0,-6.017159820E-1
2.594677938E0,-1.754135132E0,2.864615917E0,-6.126360297E-1
2.597180477E0,-1.650767803E0,2.952846527E0,-7.562209368E-1
2.599683167E0,-1.379688501E0,2.588551998E0,-8.436259627E-1
2.602185707E0,-1.160330534E0,2.092809200E0,-8.583652973E-1
2.604688169E0,-7.732117176E-1,1.365629196E0,-7.193877101E-1
2.607190859E0,-6.025586128E-1,9.331178665E-1,-6.805025339E-1
2.609693400E0,-4.188385010E-1,6.033029556E-1,-7.974734902E-1
2.612196090E0,-5.931591988E-2,1.694393158E-2,-7.502660751E-1
2.614698544E0,3.138990402E-1,-6.498537064E-1,-7.001609802E-1
2.617201081E0,5.365680456E-1,-1.361813545E0,-8.456783891E-1
2.619703773E0,7.274603844E-1,-1.930892944E0,-8.767732382E-1
2.622206314E0,8.504375219E-1,-2.295850754E0,-8.084421158E-1
2.624708775E0,8.483431339E-1,-2.449934959E0,-6.774206758E-1
2.627211475E0,9.870796204E-1,-2.663996696E0,-6.167621017E-1
2.629714015E0,1.235565901E0,-2.834632874E0,-6.931654215E-1
2.632216705E0,1.199613571E0,-3.006185532E0,-5.196132064E-1
2.634719169E0,1.204282045E0,-2.837315559E0,-5.012623072E-1
2.637221720E0,1.282505035E0,-2.398999214E0,-4.982327223E-1
2.639724413E0,1.143457651E0,-1.959829330E0,-4.517942667E-1
2.642226953E0,1.020236373E0,-1.781144142E0,-4.148144424E-1
2.644729415E0,1.355660439E0,-1.585673332E0,-3.324966729E-1
2.647232119E0,1.551311612E0,-1.616720200E0,-2.236030847E-1
2.649734659E0,1.379171610E0,-1.501176834E0,7.717243396E-3
2.652237350E0,1.166171551E0,-1.297177315E0,4.697172642E-1
2.654739890E0,1.061171532E0,-1.211227417E0,8.528172970E-1
2.657242352E0,9.261715412E-1,-1.129177094E0,1.149817348E0
2.659745042E0,8.691715002E-1,-9.622268677E-1,1.331767321E0
2.662247583E0,1.069823027E0,-1.144587517E0,1.086644053E0
2.664750273E0,1.072562695E0,-1.569314957E0,8.582419157E-1
2.667252818E0,1.006630898E0,-1.529120445E0,9.453953505E-1
2.669755280E0,1.059614658E0,-1.422075272E0,1.019252181E0
2.672257970E0,9.964997768E-1,-1.061511040E0,1.016467214E0
2.674760511E0,8.793650866E-1,-8.079986572E-1,1.113669395E0
2.677263196E0,7.542152405E-1,-6.004037857E-1,1.252527237E0
2.679765660E0,5.705205202E-1,-2.698011398E-1,1.178070188E0
2.682268196E0,2.716643810E-1,1.739759445E-1,1.080835342E0
2.684770888E0,2.902808189E-1,4.193916321E-1,9.807172418E-1
2.687273429E0,3.919832706E-1,2.819271088E-1,9.276759028E-1
2.689775895E0,4.909926653E-1,5.122089386E-2,7.490271330E-1
2.692278586E0,5.503208637E-1,-2.774162292E-1,6.482163668E-1
2.694781126E0,4.591212273E-1,-5.069046021E-1,6.843088865E-1
2.697283816E0,3.980163336E-1,-5.751132965E-1,6.084935665E-1
2.699786280E0,2.946026325E-1,-7.467317581E-1,3.432735503E-1
2.702288816E0,6.546950340E-2,-7.077493668E-1,2.010086924E-1
2.704791509E0,-1.842236519E-1,-6.553277969E-1,9.233969450E-2
2.707294049E0,-3.133568764E-1,-5.355606079E-1,5.902054533E-2
2.709796516E0,-2.266733646E-1,-5.519742966E-1,4.096633196E-2
2.712299206E0,-1.761996746E-1,-6.293582916E-1,-2.200631984E-2
2.714801747E0,-4.316320419E-1,-5.620346069E-1,-8.604291081E-2
2.717304437E0,-4.727354050E-1,-3.544178009E-1,-1.749205776E-2
2.719806900E0,-4.975490570E-1,-4.554328918E-1,1.219099946E-2
2.722309644E0,-6.852316856E-1,-6.003179550E-1,3.783494234E-3
2.724812107E0,-8.668103218E-1,-5.006904602E-1,5.061662197E-2
2.727314646E0,-8.209462166E-1,-6.427421570E-1,2.124636471E-1
2.729817336E0,-9.077699184E-1,-7.984390259E-1,3.233675659E-1
2.732319856E0,-9.370987415E-1,-8.495635986E-1,4.590440989E-1
2.734822318E0,-1.082731724E0,-7.877988815E-1,5.894840956E-1
2.737325008E0,-9.988741875E-1,-9.540815353E-1,6.968980432E-1
2.739827549E0,-9.181704521E-1,-1.130246162E0,8.629384041E-1
2.742330239E0,-7.527127266E-1,-1.248487473E0,1.028585911E0
2.744832703E0,-5.384137630E-1,-1.514552116E0,1.065004468E0
2.747335239E0,-3.405971527E-1,-1.754605293E0,1.093037486E0
2.749837931E0,-1.020219326E-1,-1.863623619E0,1.109340429E0
2.752340472E0,1.930456161E-1,-2.029512405E0,1.068993926E0
2.754842938E0,2.629289627E-1,-2.214259148E0,1.019166231E0
2.757345629E0,4.611651897E-1,-2.390884399E0,9.619403481E-1
2.759848169E0,7.375353575E-1,-2.436308861E0,8.921917677E-1
2.762350860E0,9.412444830E-1,-2.613402367E0,8.380529284E-1
2.764853284E0,1.035503864E0,-2.908589363E0,8.917387724E-1
2.767355821E0,1.438981414E0,-3.400390625E0,9.943513870E-1
2.769858513E0,1.855146050E0,-4.097257614E0,1.086068153E0
2.772361053E0,1.958343506E0,-4.285692215E0,1.271498442E0
2.774863515E0,1.964352012E0,-3.963939667E0,1.384770989E0
2.777366210E0,1.899640560E0,-3.434066772E0,1.499575496E0
2.779868751E0,1.686615944E0,-2.769274712E0,1.502489805E0
2.782371441E0,1.591319680E0,-2.319499969E0,1.493981242E0
2.784873981E0,1.737284064E0,-2.092377663E0,1.612988472E0
2.787376400E0,1.906552196E0,-1.924192429E0,1.704502821E0
2.789879090E0,2.176275492E0,-1.894866943E0,1.788631201E0
2.792381631E0,2.439401865E0,-1.967540741E0,1.871685266E0
2.794884092E0,2.648415804E0,-2.085789680E0,1.943840265E0
2.797386842E0,2.752752066E0,-2.161100388E0,1.989867926E0
2.799889305E0,2.819598675E0,-2.273139954E0,1.986563206E0
2.802391995E0,2.941591501E0,-2.363047600E0,2.012889385E0
2.804894536E0,3.150384188E0,-2.354496956E0,1.896709919E0
2.807397216E0,3.259150743E0,-2.273114204E0,1.852539301E0
2.809899680E0,3.294113874E0,-2.066248894E0,1.796167254E0
2.812402216E0,3.233557701E0,-1.800862312E0,1.660060883E0
2.814904908E0,3.202362776E0,-1.544833183E0,1.521108389E0
2.817407449E0,3.165591240E0,-1.260858536E0,1.298920631E0
2.819909911E0,3.122299671E0,-9.320745468E-1,1.157594204E0
2.822412601E0,3.111879826E0,-5.410680771E-1,1.075094461E0
2.824915141E0,2.927542210E0,4.639530182E-2,1.102673888E0
2.827417832E0,2.476511240E0,6.691837311E-1,1.054786921E0
2.829920276E0,1.939257383E0,1.196749687E0,9.606186152E-1
2.832422813E0,1.569657326E0,1.513238907E0,8.564630747E-1
2.834925505E0,1.194049478E0,1.687242985E0,7.775810361E-1
2.837428045E0,8.173463345E-1,1.787281036E0,7.028295398E-1
2.839930507E0,4.618639946E-1,1.779269218E0,5.902553201E-1
2.842433211E0,7.963228226E-2,1.697181702E0,5.074754953E-1
2.844935752E0,-2.323551178E-1,1.577670574E0,4.152635932E-1
2.847438442E0,-5.272159576E-1,1.397147179E0,3.443427980E-1
2.849940906E0,-8.575031757E-1,1.231959343E0,3.205813468E-1
2.852443447E0,-1.126557350E0,1.026073456E0,3.244356215E-1
2.854946139E0,-1.366001129E0,8.621749878E-1,2.474623621E-1
2.857448680E0,-1.601496458E0,7.195816040E-1,2.193074375E-1
2.859951141E0,-1.812039375E0,6.063470840E-1,1.524797827E-1
2.862453832E0,-2.013944149E0,5.155515671E-1,1.187003180E-1
2.864956372E0,-2.114191532E0,4.033660889E-1,5.821428448E-2
2.867459062E0,-2.159421444E0,3.588724136E-1,-6.720554829E-2
2.869961603E0,-2.215862274E0,3.145513535E-1,-1.371336281E-1
2.872464092E0,-2.312965631E0,2.910375595E-1,-2.573323846E-1
2.874966783E0,-2.350342512E0,2.958106995E-1,-3.442600071E-1
2.877469323E0,-2.360834122E0,3.114166260E-1,-4.327759445E-1
2.879972014E0,-2.391454697E0,3.163204193E-1,-4.880302846E-1
2.882474564E0,-2.358628988E0,2.979955673E-1,-5.743988752E-1
2.884977026E0,-2.396705389E0,3.333749771E-1,-5.643973947E-1
2.887479716E0,-2.453521490E0,3.067541122E-1,-4.465203881E-1
2.889982256E0,-2.418422461E0,3.278522491E-1,-4.024244547E-1
2.892484957E0,-2.211803198E0,3.455257416E-1,-3.110460341E-1
2.894987420E0,-1.966172695E0,2.851724625E-1,-2.972138822E-1
2.897489957E0,-1.904627800E0,2.956752777E-1,-2.147545815E-1
2.899992649E0,-1.807408094E0,3.802928925E-1,-1.540957689E-1
2.902495189E0,-1.551404238E0,4.466524124E-1,-1.348337233E-1
2.904997651E0,-1.358108997E0,4.302625656E-1,-9.259968996E-2
2.907500341E0,-1.279504776E0,4.769134521E-1,-1.754980534E-2
2.910002882E0,-1.198857784E0,4.906473160E-1,1.395338774E-2
2.912505557E0,-1.034366369E0,5.129976273E-1,-5.265779793E-3
2.915008021E0,-8.226032257E-1,4.973974228E-1,-2.834205329E-2
2.917510557E0,-6.942155361E-1,4.814939499E-1,-4.399269074E-2
2.920013249E0,-5.810959339E-1,4.431877136E-1,-1.706086844E-2
2.922515805E0,-4.679505825E-1,4.321537018E-1,-4.076343030E-2
2.925018266E0,-3.488264084E-1,4.384908676E-1,-7.227975130E-2
2.927520957E0,-2.842946053E-1,4.478044510E-1,-5.790685117E-2
2.930023497E0,-2.377398014E-1,4.582185745E-1,-2.753167599E-2
2.932526212E0,-1.605854034E-1,3.317670822E-1,2.751254290E-2
2.935028675E0,-5.326890945E-2,1.584329605E-1,1.166125834E-1
2.937531212E0,7.830357552E-2,6.643295288E-3,1.801252216E-1
2.940033904E0,1.378669739E-1,-7.973670959E-2,2.280823886E-1
2.942536463E0,2.497026920E-1,-9.661960602E-2,2.495404333E-1
2.945038925E0,3.523621559E-1,-2.096576691E-1,2.520474792E-1
2.947541692E0,4.101252556E-1,-2.785940170E-1,2.054514885E-1
2.950044156E0,4.138977528E-1,-2.614307404E-1,2.336120605E-1
2.952546846E0,5.569686890E-1,-3.522253036E-1,2.963665128E-1
2.955049358E0,5.314676762E-1,-2.607707977E-1,1.800008863E-1
2.957551894E0,4.915535450E-1,-2.013225555E-1,1.702392995E-1
2.960054586E0,5.230267048E-1,-2.409610748E-1,1.718052328E-1
2.962557127E0,5.865316391E-1,-1.530179977E-1,1.388075799E-1
2.965059826E0,5.971610546E-1,-1.125917435E-1,2.150799930E-1
2.967562290E0,5.589776039E-1,-8.798885345E-2,1.991743296E-1
2.970064826E0,5.446610451E-1,-1.919336319E-1,2.558105588E-1
2.972567518E0,6.452615261E-1,-1.803388596E-1,2.674199343E-1
2.975070059E0,7.202469110E-1,-2.561511993E-1,2.680751681E-1
2.977572768E0,6.951444149E-1,-2.964143753E-1,2.355324626E-1
2.980075232E0,7.568945885E-1,-3.153429031E-1,2.011208832E-1
2.982577768E0,7.850556374E-1,-3.251199722E-1,1.446589679E-1
2.985080461E0,7.445987463E-1,-3.771152496E-1,1.701533347E-1
2.987582973E0,7.057024240E-1,-3.252468109E-1,1.101735458E-1
2.990085435E0,5.791852474E-1,-2.160139084E-1,1.148241907E-1
2.992588125E0,5.105693340E-1,-1.280946732E-1,1.101734936E-1
2.995090665E0,4.774293900E-1,-7.709312439E-2,2.137841284E-2
2.997593370E0,4.216668606E-1,3.923654556E-1,1.451044679E-1
3.000095833E0,6.462823153E-1,1.314536095E0,5.193687081E-1
3.002598370E0,9.985932112E-1,2.466310024E0,5.589932203E-1
3.005101062E0,1.458152533E0,3.970972538E0,5.694727898E-1
3.007603578E0,1.794119596E0,5.038980007E0,5.794779658E-1
3.010106040E0,1.783095121E0,5.244603157E0,8.196826577E-1
3.012608730E0,1.492076039E0,4.942480564E0,1.087477446E0
3.015111271E0,-2.124595642E-2,3.950927734E0,9.273528457E-1
3.017613971E0,-1.539673090E0,2.663873672E0,6.608768702E-1
3.020116435E0,-2.188008547E0,1.723567486E0,5.380907655E-2
3.022618971E0,-2.584710836E0,9.481706619E-1,-6.900787950E-1
3.025121663E0,-2.845981359E0,2.641210556E-1,-1.304237962E0
3.027624213E0,-3.167365789E0,-3.058023453E-1,-1.728796482E0
3.030126674E0,-3.436747551E0,-7.574119568E-1,-1.957094908E0
3.032629442E0,-3.512312412E0,-9.642639160E-1,-2.165668964E0
3.035131905E0,-3.500041246E0,-1.022179604E0,-2.226905346E0
3.037634586E0,-3.547717094E0,-9.895429611E-1,-2.148780584E0
3.040137127E0,-3.591917992E0,-8.393058777E-1,-2.030282497E0
3.042639817E0,-3.644397736E0,-4.596948624E-1,-1.989242435E0
3.045142281E0,-3.699857473E0,-2.435150146E-1,-1.889197230E0
3.047644801E0,-3.652539968E0,-1.099367142E-1,-1.733958960E0
3.050147494E0,-3.520524979E0,6.901741028E-2,-1.682499886E0
3.052650034E0,-3.438225031E0,3.279485703E-1,-1.681698322E0
3.055152496E0,-3.317491293E0,5.121841431E-1,-1.682462931E0
3.057655177E0,-3.235581875E0,6.215190887E-1,-1.687069535E0
3.060157717E0,-3.225847960E0,7.010746002E-1,-1.759440064E0
3.062660408E0,-3.040451288E0,7.530336380E-1,-1.871110797E0
3.065162871E0,-2.830762386E0,7.264299393E-1,-1.960202336E0
3.067665441E0,-2.568246126E0,7.916221619E-1,-1.952321768E0
3.070168133E0,-2.326313019E0,6.677951813E-1,-1.916734219E0
3.072670673E0,-2.023703814E0,3.594245911E-1,-1.842685223E0
3.075173135E0,-1.748860598E0,1.433057785E-1,-1.761702180E0
3.077675821E0,-1.480541706E0,-1.615839005E-1,-1.757564068E0
3.080178362E0,-1.248064041E0,-2.705001831E-1,-1.786525965E0
3.082681052E0,-9.668993950E-1,-3.764400482E-1,-1.833534479E0
3.085183516E0,-6.109042168E-1,-4.303579330E-1,-1.836366415E0
3.087686047E0,-3.573055267E-1,-4.603233337E-1,-1.786124945E0
3.090188739E0,-5.155134201E-2,-5.232896805E-1,-1.521250248E0
3.092691280E0,2.000477314E-1,-5.000257492E-1,-1.358432770E0
3.095193970E0,5.022609234E-1,-6.344137192E-1,-1.133860946E0
3.097696424E0,8.321440220E-1,-6.414175034E-1,-8.511487842E-1
3.100198960E0,9.641792774E-1,-4.826745987E-1,-5.044401288E-1
3.102701653E0,1.222061396E0,-6.518754959E-1,-3.872647882E-1
3.105204193E0,1.524955273E0,-8.910808563E-1,3.091216087E-3
3.107706859E0,1.803316593E0,-8.027925491E-1,3.902242482E-1
3.110209323E0,1.836461306E0,-5.864772797E-1,7.171509862E-1
3.112711859E0,1.959854245E0,-4.467573166E-1,1.119403124E0
3.115214323E0,2.175662041E0,-4.437484741E-1,1.538352251E0
3.117717081E0,2.319506168E0,-3.538312912E-1,1.811526656E0
3.120219545E0,2.488246679E0,-3.158121109E-1,2.167258263E0
3.122722235E0,2.698136330E0,-2.772331238E-1,2.421005726E0
3.125224775E0,2.938020706E0,-2.985448837E-1,2.710285425E0
3.127727437E0,2.793808222E0,1.966285706E-2,2.987586498E0
3.130229900E0,2.548945904E0,2.094449997E-1,3.024476528E0
3.132732437E0,2.532041550E0,-1.465225220E-1,3.306184292E0
3.135235129E0,2.518884659E0,-2.300376892E-1,3.360214949E0
3.137737660E0,2.554139376E0,-2.683725357E-1,3.191518307E0
3.140240121E0,2.815298557E0,-4.118118286E-1,3.073441744E0
3.142742811E0,2.931312084E0,-3.007888794E-1,2.669527054E0
3.145245352E0,2.723489761E0,-1.800537109E-1,2.330223083E0
3.147748042E0,2.398537636E0,-4.434394836E-2,2.146728992E0
3.150250506E0,1.996518850E0,1.571226120E-1,1.979029417E0
3.152753042E0,1.812468767E0,3.851232529E-1,1.517029524E0
3.155255735E0,1.893468857E0,2.241725922E-1,1.248979449E0
3.157758280E0,1.948518753E0,1.121225357E-1,1.125979424E0
3.160260742E0,1.794878960E0,8.566761017E-2,9.122619629E-1
3.162763432E0,1.788719416E0,6.228256226E-2,6.565939784E-1
3.165265972E0,1.774407148E0,1.360931396E-1,5.093331337E-1
3.167768424E0,1.592063308E0,3.792285919E-1,5.339704156E-1
3.170271191E0,1.203539610E0,8.516674042E-1,5.671594739E-1
3.172773655E0,1.093439579E0,7.706670761E-1,7.032094598E-1
3.175276345E0,8.637903929E-1,7.618436813E-1,7.753641605E-1
3.177778885E0,7.055096626E-1,9.097146988E-1,7.883877754E-1
3.180281543E0,5.944328308E-1,1.096940041E0,7.340852618E-1
3.182784006E0,2.861663103E-1,1.429612160E0,7.904967070E-1
3.185286543E0,1.181365252E-1,1.436186790E0,7.468324900E-1
3.187789235E0,-4.262745380E-3,1.161406517E0,1.003303885E0
3.190291776E0,-8.526271582E-2,9.343061447E-1,9.943039417E-1
3.192794203E0,-3.431068659E-1,1.038033485E0,9.175398946E-1
3.195296893E0,-6.787444353E-1,1.338018417E0,7.174662352E-1
3.197799434E0,-7.536802888E-1,1.147466660E0,5.075446367E-1
3.200302124E0,-5.529643893E-1,8.603429794E-1,4.254069924E-1
3.202804569E0,-4.919829071E-1,8.201522827E-1,2.153726816E-1
3.205307105E0,-5.091201067E-1,7.794809341E-1,7.932645082E-2
3.207809798E0,-4.008444548E-1,6.904582977E-1,-1.217513680E-1
3.210312338E0,-4.230951369E-1,5.235624313E-1,-2.979667187E-1
3.212814800E0,-5.820951462E-1,6.096620560E-1,-4.220166802E-1
3.215317490E0,-5.910950899E-1,7.466125488E-1,-8.100667596E-1
3.217820030E0,-6.218155622E-1,2.651538849E-1,-6.656647325E-1
3.220322721E0,-6.536555290E-1,2.280902863E-2,-6.093211174E-1
3.222825184E0,-6.226175427E-1,-9.323024750E-2,-6.555762887E-1
3.225327721E0,-6.365675330E-1,-1.382303238E-1,-6.675762534E-1
3.227830422E0,-7.539632320E-1,-1.191816330E-1,-7.702273130E-1
3.230332962E0,-7.162405849E-1,-3.027667999E-1,-7.633234859E-1
3.232835424E0,-7.578457594E-1,-4.816846848E-1,-6.568673253E-1
3.235338114E0,-8.347648382E-1,-4.839792252E-1,-6.922422051E-1
3.237840636E0,-1.044351459E0,-4.366817474E-1,-7.124898434E-1
3.240343326E0,-1.067482233E0,-6.475954056E-1,-7.802224159E-1
3.242845867E0,-1.056222916E0,-9.099960327E-1,-6.438217759E-1
3.245348328E0,-1.152817845E0,-8.637447357E-1,-5.443326831E-1
3.247851028E0,-1.230351448E0,-8.213024139E-1,-3.722927570E-1
3.250353569E0,-1.161334753E0,-8.571634293E-1,-4.041752219E-1
3.252856259E0,-1.313713670E0,-8.138570786E-1,-3.562368751E-1
3.255358800E0,-1.477740049E0,-7.863721848E-1,-2.310444713E-1
3.257861265E0,-1.498946190E0,-8.159914017E-1,-1.540644765E-1
3.260363955E0,-1.401144147E0,-7.358713150E-1,1.208651066E-2
3.262866496E0,-1.435592413E0,-6.561784744E-1,1.641172767E-1
3.265369186E0,-1.431265712E0,-5.710325241E-1,3.293014765E-1
3.267871641E0,-1.447660685E0,-5.668106079E-1,5.367481709E-1
3.270374177E0,-1.481852055E0,-6.537990570E-1,7.199514508E-1
3.272876870E0,-1.554255486E0,-6.167449951E-1,7.946686149E-1
3.275379410E0,-1.636219263E0,-6.227350235E-1,9.046661854E-1
3.277881872E0,-1.711950541E0,-6.868257523E-1,9.906473160E-1
3.280384543E0,-1.765571594E0,-7.308444977E-1,1.040405869E0
3.282887083E0,-1.722095490E0,-7.920084000E-1,1.058924079E0
3.285389774E0,-1.701360703E0,-8.442106247E-1,9.985222816E-1
3.287892237E0,-1.700620770E0,-9.172887802E-1,1.012306571E0
3.290394774E0,-1.678510189E0,-1.169634819E0,1.144329786E0
3.292897466E0,-1.596197009E0,-1.519223213E0,1.274935842E0
3.295400006E0,-1.603747964E0,-1.719707489E0,1.431443691E0
3.297902468E0,-1.790732622E0,-1.867489815E0,1.504317164E0
3.300405191E0,-1.902159929E0,-1.988583565E0,1.577467561E0
3.302907732E0,-2.007235527E0,-2.171611786E0,1.603960752E0
3.305410422E0,-2.080944300E0,-2.273859978E0,1.596481919E0
3.307912886E0,-2.285754442E0,-2.356615067E0,1.737042665E0
3.310415648E0,-2.442625523E0,-2.403292656E0,1.775620103E0
3.312918111E0,-2.614150286E0,-2.357556343E0,1.884639263E0
3.315420650E0,-2.812152386E0,-2.298397064E0,2.009369373E0
3.317923340E0,-2.897723675E0,-2.191921234E0,2.053699017E0
3.320425891E0,-3.064688683E0,-2.103018761E0,2.192467213E0
3.322928352E0,-3.211940765E0,-1.955597878E0,2.292732954E0
3.325431043E0,-3.241144180E0,-1.738771439E0,2.389192581E0
3.327933583E0,-3.305408001E0,-1.619185448E0,2.564691544E0
3.330436045E0,-3.481817245E0,-1.501125336E0,2.726379156E0
3.332938725E0,-3.475718737E0,-1.246361732E0,2.879267693E0
3.335441265E0,-3.434127331E0,-1.054677010E0,3.122088909E0
3.337943956E0,-3.260792732E0,-9.102048874E-1,3.380742073E0
3.340446496E0,-3.171418190E0,-7.898492813E-1,3.529963017E0
3.342948992E0,-2.994143724E0,-6.627569199E-1,3.582222462E0
3.345451682E0,-2.632413864E0,-5.768480301E-1,3.545886517E0
3.347954222E0,-2.210823536E0,-5.088043213E-1,3.458787441E0
3.350456913E0,-1.778045416E0,-5.409221649E-1,3.324210644E0
3.352959400E0,-1.329695821E0,-6.666841507E-1,3.361198425E0
3.355461937E0,-9.971002936E-1,-6.657209396E-1,3.330488682E0
3.357964629E0,-7.136565447E-1,-7.175188065E-1,3.129326105E0
3.360467170E0,-4.300388098E-1,-6.766157150E-1,3.014097214E0
3.362969664E0,-1.770263910E-1,-5.952491760E-1,2.683776855E0
3.365472354E0,-3.194010258E-2,-6.908836365E-1,2.518979311E0
3.367974895E0,1.751177311E-1,-7.986888885E-1,2.507476807E0
3.370477585E0,3.126699924E-1,-8.376483917E-1,2.457421064E0
3.372980131E0,3.580049276E-1,-8.216953278E-1,2.437984228E0
3.375482592E0,4.537901878E-1,-7.716846466E-1,2.384913683E0
3.377985283E0,5.060619116E-1,-6.355743408E-1,2.329123735E0
3.380487823E0,6.072705984E-1,-5.112466812E-1,2.197038174E0
3.382990508E0,6.842293739E-1,-4.992122650E-1,2.071113110E0
3.385493049E0,8.650165796E-1,-4.391222000E-1,2.002655506E0
3.387995510E0,1.079605818E0,-3.842115402E-1,1.954833508E0
3.390498201E0,1.099788427E0,-3.213453293E-1,1.932640076E0
3.393000640E0,1.149563789E0,-2.074661255E-1,1.906090736E0
3.395503407E0,1.257069468E0,-1.065874100E-1,1.807191491E0
3.398005871E0,1.385652781E0,-1.810836792E-2,1.747788191E0
3.400508409E0,1.583765149E0,-3.188800812E-2,1.562121868E0
3.403011100E0,1.817362189E0,-1.269884109E-1,1.621571183E0
3.405513640E0,1.904744267E0,2.265167236E-2,1.635558963E0
3.408016102E0,2.004487038E0,6.394290924E-2,1.544546723E0
3.410518792E0,2.145503521E0,1.448659897E-1,1.462029815E0
3.413021333E0,2.228905201E0,2.613372803E-1,1.451147795E0
3.415524033E0,2.301307201E0,3.940372467E-1,1.364777207E0
3.418026496E0,2.324467182E0,4.923753738E-1,1.355011463E0
3.420529033E0,2.273167133E0,6.628503799E-1,1.349621058E0
3.423031725E0,2.218221188E0,8.580093384E-1,1.343520164E0
3.425534266E0,2.091952324E0,1.105700493E0,1.283721328E0
3.428036727E0,1.960248470E0,1.252426147E0,1.319816232E0
3.430539417E0,1.839836717E0,1.416998863E0,1.287953258E0
3.433041958E0,1.582674980E0,1.661413670E0,1.298010826E0
3.435544662E0,1.314465046E0,1.861704350E0,1.291720152E0
3.438047126E0,9.439654350E-1,2.037037373E0,1.236301780E0
3.440549662E0,5.980603695E-1,2.152046680E0,1.147408247E0
3.443052355E0,1.796854734E-1,2.323087215E0,1.012292147E0
3.445554895E0,-1.603788137E-1,2.337922573E0,9.817723036E-1
3.448057386E0,-4.668728113E-1,2.235419750E0,9.135668278E-1
3.450560076E0,-6.957086325E-1,2.156426430E0,7.842464447E-1
3.453062616E0,-7.735827565E-1,1.981266499E0,7.477651834E-1
3.455565307E0,-8.990104795E-1,1.743724346E0,6.423124671E-1
3.458067847E0,-1.143769741E0,1.464085579E0,5.698878765E-1
3.460570304E0,-1.378279448E0,1.118169785E0,4.975988269E-1
3.463072994E0,-1.618133903E0,7.444610596E-1,4.426064491E-1
3.465575535E0,-1.859985232E0,3.223648071E-1,3.774170876E-1
3.468078225E0,-2.103204250E0,-8.508110046E-2,2.977753878E-1
3.470580765E0,-2.421621084E0,-3.721809387E-1,2.094411254E-1
3.473083227E0,-2.825094700E0,-6.247797012E-1,8.640050888E-2
3.475585917E0,-3.033982277E0,-1.043439865E0,6.845545769E-2
3.478088458E0,-3.268889666E0,-1.333348274E0,-1.945948601E-2
3.480591162E0,-3.582760096E0,-1.734415054E0,-2.152450681E-1
3.483093625E0,-3.777895212E0,-2.012314796E0,-3.111184239E-1
3.485596162E0,-3.985889912E0,-2.260980606E0,-5.248383880E-1
3.488098854E0,-4.147306442E0,-2.485248566E0,-7.863100171E-1
3.490601381E0,-4.136114597E0,-2.807921410E0,-1.087877035E0
3.493103842E0,-4.083592415E0,-3.014190674E0,-1.277619600E0
3.495606533E0,-4.121357441E0,-3.021598816E0,-1.461312532E0
3.498109073E0,-3.931527138E0,-3.044135094E0,-2.071654320E0
3.500611773E0,-3.514431477E0,-3.137514114E0,-2.623833418E0
3.503114237E0,-3.088080645E0,-3.166108131E0,-3.236749411E0
3.505617004E0,-2.613122463E0,-3.048768997E0,-3.857219458E0
3.508119468E0,-1.989356637E0,-2.943661690E0,-4.400580883E0
3.510622006E0,-1.371586561E0,-2.737917900E0,-4.757686138E0
3.513124468E0,-9.515658617E-1,-2.472075462E0,-5.003476620E0
3.515627235E0,-5.560013056E-1,-2.225162506E0,-4.949111938E0
3.518129698E0,-1.622787714E-1,-2.076425552E0,-4.628249645E0
3.520632403E0,-1.067633629E-1,-1.768646240E0,-4.075148582E0
3.523134943E0,-7.583379745E-2,-1.382395744E0,-3.495242119E0
3.525637634E0,-4.808950424E-2,-1.142168045E0,-2.932528257E0
3.528140097E0,-1.121203899E-1,-8.726615906E-1,-2.396637917E0
3.530642610E0,-1.378426552E-1,-6.435222626E-1,-1.892743945E0
3.533145302E0,-2.410783768E-1,-5.168304443E-1,-1.376636863E0
3.535647842E0,-4.065394402E-1,-3.422441483E-1,-9.173697233E-1
3.538150304E0,-5.942187309E-1,-1.221017838E-1,-5.353821516E-1
3.540653013E0,-6.950756311E-1,-8.639621735E-2,-2.482626438E-1
3.543155554E0,-7.700165510E-1,-1.272230148E-1,7.307243347E-2
3.545658244E0,-8.052847385E-1,-1.161651611E-1,3.830553293E-1
3.548160708E0,-7.967005968E-1,-1.816034317E-1,5.651140809E-1
3.550663269E0,-7.602726221E-1,-3.043794632E-1,7.619978189E-1
3.553165961E0,-7.064232826E-1,-4.305486679E-1,9.214587808E-1
3.555668502E0,-7.340601683E-1,-5.650110245E-1,1.076446414E0
3.558170963E0,-7.468587160E-1,-8.054895401E-1,1.154515028E0
3.560673664E0,-7.166811228E-1,-1.029700279E0,1.250986576E0
3.563176204E0,-7.211782932E-1,-1.281039238E0,1.311432362E0
3.565678894E0,-7.440009117E-1,-1.438351631E0,1.338542342E0
3.568181358E0,-6.583296061E-1,-1.683785439E0,1.401324511E0
3.570683870E0,-6.038914919E-1,-1.877195358E0,1.403773308E0
3.573186563E0,-6.305910349E-1,-1.965674400E0,1.429605246E0
3.575689103E0,-6.073352098E-1,-2.154026031E0,1.444973230E0
3.578191794E0,-5.194579363E-1,-2.434391975E0,1.357404828E0
3.580694252E0,-5.328567028E-1,-2.658823967E0,1.303581476E0
3.583196789E0,-5.932527781E-1,-2.854302406E0,1.345440388E0
3.585699481E0,-6.670020819E-1,-3.028631210E0,1.372203469E0
3.588201944E0,-6.827216148E-1,-3.184084892E0,1.387780309E0
3.590704712E0,-7.275440693E-1,-3.312501907E0,1.424097300E0
3.593207175E0,-9.235998392E-1,-3.548951149E0,1.366321445E0
3.595709714E0,-1.018737316E0,-3.720499992E0,1.197635651E0
3.598212404E0,-1.045268536E0,-4.113095284E0,8.584547639E-1
3.600714872E0,-1.066893339E0,-4.572872162E0,4.407857060E-1
3.603217408E0,-9.657180309E-1,-5.142831802E0,-1.836359501E-2
3.605720100E0,-1.014610767E0,-5.617151260E0,-4.638431072E-1
3.608222641E0,-1.397306919E0,-5.790917397E0,-7.466943264E-1
3.610725102E0,-2.085983038E0,-5.662335396E0,-8.015663624E-1
3.613227765E0,-2.625138760E0,-5.758579254E0,-6.528127193E-1
3.615730305E0,-2.939585924E0,-6.101567268E0,-2.460530996E-1
3.618232995E0,-3.131996155E0,-6.265107155E0,3.574917316E-1
3.620735536E0,-3.450764656E0,-6.186396599E0,1.024249792E0
3.623238001E0,-3.621068954E0,-5.994176865E0,1.740244627E0
3.625740692E0,-3.764691830E0,-5.851226807E0,2.488478184E0
3.628243232E0,-3.892625093E0,-5.712549210E0,3.319621563E0
3.630745694E0,-3.984726429E0,-5.492937088E0,3.996773720E0
3.633248370E0,-3.826931000E0,-5.230167389E0,4.565773010E0
3.635750911E0,-3.663917780E0,-5.048541069E0,5.221214294E0
3.638253601E0,-3.481291533E0,-4.858801842E0,5.680160522E0
3.640756141E0,-3.212115765E0,-4.623541832E0,6.216519833E0
3.643258588E0,-2.785065651E0,-4.336441994E0,6.789519787E0
3.645761278E0,-2.179550648E0,-4.000988007E0,8.483392715E0
3.648263819E0,-1.342473030E0,-3.755942345E0,1.077664185E1
3.650766280E0,-3.922845125E-1,-3.465458870E0,1.299213791E1
3.653269052E0,6.246793270E-1,-3.076999664E0,1.543572903E1
3.655771516E0,1.936444163E0,-2.615815163E0,1.936120605E1
3.658274206E0,3.400317430E0,-2.241662025E0,2.362785149E1
3.660776670E0,4.485370636E0,-1.930448532E0,2.509503365E1
3.663279408E0,4.870285511E0,-1.618350029E0,2.372945595E1
3.665781872E0,4.758820534E0,-1.308581352E0,2.143512154E1
3.668284410E0,4.468080044E0,-1.128993034E0,1.876589966E1
3.670787100E0,4.112683296E0,-1.068681717E0,1.594353485E1
3.673289603E0,3.801050186E0,-1.103498459E0,1.301614285E1
3.675792064E0,3.584100246E0,-1.183890343E0,9.996124268E0
3.678294755E0,3.435620308E0,-1.193142891E0,6.851192474E0
3.680797295E0,3.325517893E0,-1.246772766E0,3.960320950E0
3.683299970E0,3.368335724E0,-1.351439476E0,1.872555137E0
3.685802434E0,3.481806755E0,-1.461919785E0,5.624524951E-1
3.688304970E0,3.460782528E0,-1.522248268E0,-2.021656036E-1
3.690807663E0,3.598394632E0,-1.569331169E0,-6.261827946E-1
3.693310179E0,3.803766727E0,-1.716358185E0,-9.315589666E-1
3.695812870E0,3.861938000E0,-1.851131439E0,-1.287314534E0
3.698315333E0,3.868835926E0,-1.895654678E0,-1.685106993E0
3.700817870E0,3.803503036E0,-1.918000221E0,-1.883025885E0
3.703320562E0,3.764111996E0,-1.952144623E0,-1.884335995E0
3.705823001E0,3.737969398E0,-1.984828949E0,-1.893824935E0
3.708325538E0,3.699414492E0,-2.039096832E0,-2.034613132E0
3.710828230E0,3.503400564E0,-2.053855896E0,-2.189447165E0
3.713330771E0,3.179203987E0,-2.136139870E0,-2.332299709E0
3.715833228E0,2.975831270E0,-2.170875549E0,-2.451302528E0
3.718335919E0,2.905519247E0,-2.237039566E0,-2.512581110E0
3.720838459E0,2.692275047E0,-2.355830193E0,-2.508723497E0
3.723341149E0,2.179239273E0,-2.439938545E0,-2.461067200E0
3.725843690E0,1.797853947E0,-2.566259384E0,-2.369517803E0
3.728346170E0,1.743584991E0,-2.662524223E0,-2.209424734E0
3.730848861E0,1.338686943E0,-2.747005463E0,-2.327881098E0
3.733351401E0,1.076899171E0,-2.888703346E0,-2.463589191E0
3.735854091E0,9.862066507E-1,-3.035592079E0,-2.554780960E0
3.738356641E0,9.031678438E-1,-3.034855843E0,-2.601374149E0
3.740859102E0,9.048188925E-1,-3.077327728E0,-2.619416952E0
3.743361793E0,8.697050810E-1,-3.072111130E0,-2.772915840E0
3.745864333E0,1.020740032E0,-2.992436409E0,-3.020738602E0
3.748367024E0,1.414402604E0,-2.935114861E0,-3.196984529E0
3.750869487E0,1.647636175E0,-2.955188751E0,-3.533755302E0
3.753372024E0,1.845151186E0,-2.838779449E0,-3.921670437E0
3.755874716E0,1.952059984E0,-2.742792130E0,-4.325446606E0
3.758377256E0,1.881014705E0,-2.649375916E0,-4.736866951E0
3.760879699E0,2.015745163E0,-2.608335495E0,-5.080904484E0
3.763382389E0,2.242599964E0,-2.620837212E0,-5.424584866E0
3.765884930E0,2.244417191E0,-2.791693687E0,-5.700727463E0
3.768387620E0,2.292462826E0,-2.826858521E0,-6.023473263E0
3.770890084E0,2.253580093E0,-2.673467636E0,-6.604179382E0
3.773392620E0,2.319411278E0,-2.637288094E0,-7.087988853E0
3.775895312E0,2.299576759E0,-2.529281616E0,-7.476119995E0
3.778397853E0,2.220472336E0,-2.279529572E0,-8.045446396E0
3.780900314E0,2.124465466E0,-2.169809341E0,-8.479390144E0
3.783403034E0,2.027297735E0,-2.160156250E0,-8.523589134E0
3.785905574E0,1.636016607E0,-2.268314362E0,-8.061368942E0
3.788408264E0,1.286531448E0,-2.385348320E0,-7.519985676E0
3.790910728E0,1.047330618E0,-2.368224144E0,-6.620159626E0
3.793413495E0,2.310152054E-1,-2.235805511E0,-4.066447258E0
3.795915959E0,-1.173707008E0,-2.105767250E0,1.176713109E0
3.798418497E0,-2.375314236E0,-2.240097046E0,5.289219856E0
3.800921188E0,-2.976321459E0,-2.497222900E0,6.957561493E0
3.803423680E0,-3.366065979E0,-2.699064255E0,7.613304615E0
3.805926217E0,-3.522572517E0,-2.798508644E0,7.420541763E0
3.808428909E0,-3.229473591E0,-3.005465508E0,6.433677673E0
3.810931449E0,-3.081842661E0,-3.185941696E0,4.838615417E0
3.813434164E0,-2.846262217E0,-3.409801483E0,2.987879992E0
3.815936627E0,-3.012700319E0,-3.555056572E0,1.368077993E0
3.818439164E0,-3.217410803E0,-3.668601036E0,1.915122271E-1
3.820941856E0,-3.561218739E0,-3.856152534E0,-1.161378980E0
3.823444391E0,-4.107346535E0,-4.024603844E0,-2.384737253E0
3.825946853E0,-4.182425499E0,-4.208019257E0,-3.701054573E0
3.828449543E0,-3.961980343E0,-4.243797302E0,-4.448479176E0
3.830952084E0,-3.454641104E0,-4.085881233E0,-4.536065578E0
3.833454779E0,-3.384470463E0,-3.800788879E0,-4.157801628E0
3.835957243E0,-3.165788651E0,-3.453765869E0,-3.608559608E0
3.838459779E0,-2.938006163E0,-3.069660187E0,-3.028100252E0
3.840962471E0,-2.809259415E0,-2.777713776E0,-2.367489576E0
3.843465036E0,-2.625846386E0,-2.444018364E0,-1.846772552E0
3.845967497E0,-2.577047825E0,-2.217610359E0,-1.623082876E0
3.848470188E0,-2.545625687E0,-2.074476242E0,-1.581461668E0
3.850972728E0,-2.360470295E0,-1.955122948E0,-1.516232491E0
3.853475428E0,-1.942061782E0,-1.777389526E0,-1.495298386E0
3.855977891E0,-1.423000932E0,-1.597615242E0,-1.404970884E0
3.858480428E0,-1.142991781E0,-1.470581055E0,-1.530933857E0
3.860983120E0,-1.055575728E0,-1.333708763E0,-1.484316468E0
3.863485670E0,-8.184999228E-1,-1.232355118E0,-1.463686228E0
3.865988132E0,-4.118077755E-1,-1.131919861E0,-1.528519154E0
3.868490899E0,-2.490252256E-1,-1.079307556E0,-1.785324097E0
3.870993363E0,-3.450071812E-2,-1.041014671E0,-1.769662619E0
3.873496096E0,1.423946619E-1,-1.098400116E0,-1.645018816E0
3.875998559E0,1.008085012E-1,-1.133528709E0,-1.991236210E0
3.878501327E0,-1.290214062E-1,-8.893108368E-1,-2.301438093E0
3.881003790E0,-4.370813370E-1,-6.591663361E-1,-2.525743484E0
3.883506329E0,-5.534824133E-1,-5.846471786E-1,-2.866957903E0
3.886009019E0,-6.454610825E-1,-4.457912445E-1,-3.040264845E0
3.888511560E0,-7.995398045E-1,-2.643156052E-1,-3.199466705E0
3.891014021E0,-6.571425200E-1,-1.436834335E-1,-3.364485502E0
3.893516697E0,-3.384244442E-1,-4.886436462E-2,-3.257963657E0
3.896019238E0,-3.799675703E-1,7.723140717E-2,-3.299254179E0
3.898521928E0,-3.106924295E-1,8.736324310E-2,-3.601673603E0
3.901024392E0,-1.154533625E-1,1.825714111E-1,-3.770601749E0
3.903526928E0,5.059063435E-2,2.480611801E-1,-4.067089081E0
3.906029648E0,8.931612968E-2,3.957653046E-1,-4.337058067E0
3.908532189E0,1.228275299E-1,5.772905350E-1,-4.446980476E0
3.911034650E0,-4.137599468E-2,7.875442505E-1,-4.441426277E0
3.913537341E0,-1.317638159E-1,1.029556274E0,-4.257774353E0
3.916039881E0,-1.458132267E-1,1.324567795E0,-4.282061577E0
3.918542587E0,-2.196012735E-1,1.584118366E0,-4.514006138E0
3.921045050E0,-3.237782717E-1,1.844095230E0,-4.734293938E0
3.923547587E0,-4.382766485E-1,2.137562752E0,-4.947854996E0
3.926050279E0,-4.539290667E-1,2.392901421E0,-5.171621799E0
3.928552819E0,-3.606829643E-1,2.666031837E0,-5.317464828E0
3.931055281E0,-3.083429337E-1,2.891351700E0,-5.542520046E0
3.933557971E0,-1.928098202E-1,3.095981598E0,-5.695510864E0
3.936060512E0,8.864045143E-3,3.327129841E0,-5.931886673E0
3.938563187E0,1.833820343E-1,3.580086708E0,-6.167986393E0
3.941065727E0,3.753819466E-1,3.807186604E0,-6.341086388E0
3.943568189E0,5.523819923E-1,3.997087002E0,-6.554086685E0
3.946070879E0,7.917768955E-1,4.102485180E0,-6.777367592E0
3.948573425E0,9.313718081E-1,4.235946655E0,-6.735162735E0
3.951076115E0,1.084738851E0,4.349307537E0,-6.817201614E0
3.953578656E0,1.242103457E0,4.448560238E0,-6.798195839E0
3.956081117E0,1.344146967E0,4.581054211E0,-6.808589935E0
3.958583802E0,1.418440938E0,4.672129631E0,-6.777648926E0
3.961086343E0,1.548940778E0,4.716440201E0,-6.613762856E0
3.963589033E0,1.548769474E0,4.728958130E0,-6.575769424E0
3.966091497E0,1.710627317E0,4.842533588E0,-6.415657043E0
3.968594019E0,1.787620783E0,5.041232109E0,-6.041874409E0
3.971096712E0,1.639803886E0,5.095172882E0,-5.945166588E0
3.973599252E0,1.517228127E0,5.093098164E0,-5.957710743E0
3.976101714E0,1.452519417E0,5.105284214E0,-5.934953213E0
3.978604394E0,1.322817802E0,5.021501541E0,-5.981751442E0
3.981106934E0,1.191185713E0,4.968020439E0,-5.878017902E0
3.983609625E0,1.125680208E0,4.841162205E0,-5.814356804E0
3.986112088E0,1.055298090E0,4.591601372E0,-5.699111938E0
3.988614644E0,8.658025265E-1,4.503902912E0,-5.559565067E0
3.991117336E0,6.936669350E-1,4.379945278E0,-5.337821960E0
3.993619876E0,5.304679871E-1,4.187217236E0,-5.144245625E0
3.996122338E0,4.392390251E-1,3.948517323E0,-5.044878006E0
3.998625125E0,3.933715820E-1,3.827907562E0,-4.917835712E0
4.001127589E0,2.695703506E-1,3.809317589E0,-4.638599873E0
4.003630279E0,1.577112675E-1,3.659601688E0,-4.526117325E0
4.006132743E0,1.748042107E-1,3.471529961E0,-4.356533051E0
4.008635510E0,6.775212288E-2,3.383378983E0,-4.189802170E0
4.011137982E0,1.457214355E-2,3.297852039E0,-4.122176170E0
4.013640521E0,-5.098915100E-2,3.169926643E0,-4.045653343E0
4.016143211E0,-1.601040363E-1,3.052681446E0,-3.981065512E0
4.018645675E0,-1.716165543E-1,3.036060333E0,-3.797653675E0
4.021148211E0,-1.610360146E-1,3.010999203E0,-3.653130054E0
4.023650899E0,-1.503992081E-1,2.959286213E0,-3.587752581E0
4.026153439E0,-1.976938248E-1,2.971167088E0,-3.478499413E0
4.028655901E0,-3.566962481E-1,3.057433128E0,-3.226432800E0
4.031158591E0,-6.225776672E-1,2.961125374E0,-3.117779255E0
4.033661131E0,-5.372613668E-1,2.967187405E0,-2.838379860E0
4.036163845E0,-4.708973169E-1,3.034620285E0,-2.551254749E0
4.038666385E0,-5.148186684E-1,3.055273056E0,-2.382482529E0
4.041168847E0,-6.499625444E-1,3.074174881E0,-2.155973434E0
4.043671537E0,-7.884688377E-1,3.125168324E0,-1.893126965E0
4.046174045E0,-8.092656136E-1,3.201843739E0,-1.543973446E0
4.048676736E0,-9.191626310E-1,3.256686687E0,-1.244120598E0
4.051179199E0,-1.085996628E0,3.265169144E0,-1.038165331E0
4.053681736E0,-1.290308714E0,3.267659664E0,-7.560906410E-1
4.056184412E0,-1.471395254E0,3.260649204E0,-4.624621868E-1
4.058686953E0,-1.474157691E0,3.191886425E0,-2.294368744E-1
4.061189414E0,-1.507563114E0,3.086568832E0,-6.242561340E-2
4.063692104E0,-1.607812405E0,3.000829697E0,1.306605339E-1
4.066194641E0,-1.727421999E0,2.862355232E0,3.218135834E-1
4.068697331E0,-1.870094776E0,2.684085846E0,6.177234650E-1
4.071199795E0,-1.862052441E0,2.478672504E0,9.634585381E-1
4.073702331E0,-1.728705406E0,2.280335426E0,1.314943314E0
4.076205008E0,-1.762670994E0,2.045208454E0,1.740868568E0
4.078707549E0,-1.856880307E0,1.777153492E0,2.159788132E0
4.081210011E0,-1.829525948E0,1.402852058E0,2.437035084E0
4.083712701E0,-1.771618724E0,1.020177841E0,2.854112148E0
4.086215241E0,-1.711412907E0,6.333503723E-1,3.211940765E0
4.088717908E0,-1.616584659E0,2.500381470E-1,3.484153748E0
4.091220448E0,-1.592315435E0,-1.284933090E-1,3.765684605E0
4.093723138E0,-1.487379074E0,-4.738645554E-1,4.021352768E0
4.096225602E0,-1.309386015E0,-8.319826126E-1,4.339076519E0
4.098728157E0,-1.134460926E0,-1.147356987E0,4.546172142E0
4.101230850E0,-1.020797729E0,-1.490228653E0,4.752161026E0
4.103733390E0,-7.801167965E-1,-1.800224304E0,4.998456001E0
4.106236080E0,-6.084645987E-1,-2.048357964E0,5.329819202E0
4.108738539E0,-5.035148859E-1,-2.296833038E0,5.693942070E0
4.111241076E0,-2.834761143E-1,-2.629892349E0,5.916485786E0
4.113743768E0,-1.230765581E-1,-2.869255066E0,5.814501286E0
4.116246308E0,9.370326996E-2,-3.129240036E0,5.532585144E0
4.118748751E0,2.771828175E-1,-3.391855240E0,5.218901634E0
4.121251441E0,5.492217541E-1,-3.536777496E0,4.903313160E0
4.123753982E0,7.597880363E-1,-3.647213936E0,4.552346230E0
4.126256672E0,9.709150791E-1,-3.677866936E0,4.209831238E0
4.128759164E0,1.240432978E0,-3.694685936E0,3.973334312E0
4.131261701E0,1.510217905E0,-3.680760384E0,3.690661907E0
4.133764393E0,1.639271498E0,-3.609768867E0,3.373894215E0
4.136266934E0,1.797110081E0,-3.521883011E0,3.085169792E0
4.138769409E0,1.925497770E0,-3.390341759E0,2.881547451E0
4.141272100E0,1.983360529E0,-3.288558960E0,2.538468599E0
4.143774640E0,2.098572731E0,-3.080508232E0,2.246138334E0
4.146277330E0,2.115916729E0,-2.922363281E0,1.897645712E0
4.148779794E0,2.040960312E0,-2.716021538E0,1.663775682E0
4.151282330E0,2.012346506E0,-2.457527161E0,1.436923504E0
4.153785023E0,1.988514900E0,-2.184672356E0,1.322800398E0
4.156287563E0,1.962656975E0,-1.922514915E0,1.274462938E0
4.158790025E0,1.988733768E0,-1.708120346E0,1.194619894E0
4.161292792E0,1.985041857E0,-1.430944443E0,1.065673590E0
4.163795255E0,1.985041857E0,-1.140994072E0,9.906733036E-1
4.166297946E0,1.955774546E0,-8.835697174E-1,1.035900116E0
4.168800419E0,2.040780544E0,-6.621036530E-1,1.195956230E0
4.171303187E0,2.138253450E0,-4.699392319E-1,1.293411970E0
4.173805650E0,2.207690954E0,-3.179788589E-1,1.461048365E0
4.176308189E0,2.355408192E0,-1.911363602E-1,1.671342611E0
4.178810869E0,2.613723516E0,-1.253757477E-1,1.878869772E0
4.181313332E0,3.010338545E0,-2.295312881E-1,2.115240574E0
4.183815869E0,3.521944284E0,-4.492769241E-1,2.275847673E0
4.186318561E0,4.170456409E0,-8.740081787E-1,2.213698149E0
4.188821102E0,4.961772442E0,-1.491517067E0,1.915694952E0
4.191323768E0,5.851860046E0,-2.347292900E0,1.467841864E0
4.193826232E0,6.863435745E0,-3.334349632E0,1.051196575E0
4.196328768E0,7.712786674E0,-4.305737495E0,5.457098484E-1
4.198831460E0,8.304097176E0,-5.361398697E0,2.166335583E-1
4.201334001E0,8.786208153E0,-6.363656044E0,-1.095294952E-3
4.203836472E0,9.000302315E0,-7.259808540E0,-6.947517395E-4
4.206339163E0,8.911351204E0,-8.076561928E0,2.714314461E-1
4.208841703E0,8.633412361E0,-8.665728569E0,7.455902100E-1
4.211344393E0,8.064905167E0,-8.959234238E0,1.281843662E0
4.213846890E0,6.980633259E0,-8.943968773E0,1.644819975E0
4.216349426E0,5.929133415E0,-8.582037926E0,1.777055502E0
4.218852119E0,4.745484352E0,-7.832069397E0,1.401861191E0
4.221354659E0,3.542097807E0,-6.819740295E0,8.752686977E-1
4.223857131E0,2.567166090E0,-5.759107590E0,2.613451481E-1
4.226359821E0,1.675720453E0,-4.668570518E0,-2.952251434E-1
4.228862362E0,9.368331432E-1,-3.521162033E0,-7.074701786E-1
4.231365052E0,2.591350079E-1,-2.489434242E0,-1.025905132E0
4.233867515E0,-1.342456341E-1,-1.551415443E0,-1.284003496E0
4.236370057E0,-3.576122522E-1,-6.879129410E-1,-1.639053822E0
4.238872749E0,-3.590016365E-1,1.274805069E-1,-2.136257648E0
4.241375290E0,-1.391313076E-1,8.594141006E-1,-2.842208385E0
4.243877751E0,1.346986294E-1,1.540724277E0,-3.725212574E0
4.246380518E0,3.959867954E-1,2.217719555E0,-4.637257099E0
4.248882982E0,6.355850697E-1,2.828181267E0,-5.691017151E0
4.251385672E0,7.508747578E-1,3.459526539E0,-6.683889389E0
4.253888213E0,8.455145359E-1,4.143681049E0,-7.529953003E0
4.256390927E0,7.723255157E-1,4.785848618E0,-8.104300499E0
4.258893468E0,6.592316628E-1,5.335957527E0,-8.475931168E0
4.261395929E0,6.708376408E-1,5.780844688E0,-8.583205223E0
4.263898619E0,7.709503174E-1,6.147716999E0,-8.960545540E0
4.266401136E0,8.708500862E-1,6.389205933E0,-8.939199448E0
4.268903597E0,1.065571070E0,6.549325466E0,-8.818326950E0
4.271406288E0,1.166917562E0,6.615884304E0,-8.745944977E0
4.273908828E0,1.230354548E0,6.594685555E0,-8.648788452E0
4.276411509E0,1.347263098E0,6.472694397E0,-8.459657669E0
4.278914049E0,1.400916815E0,6.267952919E0,-8.235820770E0
4.281416511E0,1.445204735E0,6.053301811E0,-8.062148094E0
4.283919201E0,1.374716043E0,5.801723480E0,-7.851624012E0
4.286421746E0,1.251674652E0,5.501440048E0,-7.618115425E0
4.288924437E0,1.128739357E0,5.115291595E0,-7.338181496E0
4.291426900E0,1.065876245E0,4.618587494E0,-7.005674839E0
4.293929437E0,9.799132347E-1,4.155197144E0,-6.629158020E0
4.296432110E0,9.044015408E-1,3.559135437E0,-6.150667667E0
4.298934650E0,7.983360291E-1,2.987503052E0,-5.764451981E0
4.301437112E0,7.773492336E-1,2.363810539E0,-5.453718662E0
4.303939802E0,7.907185555E-1,1.825131416E0,-5.424684048E0
4.306442310E0,7.301156521E-1,1.309674263E0,-5.603847027E0
4.308945000E0,6.167755127E-1,8.373079300E-1,-5.938642502E0
4.311447464E0,4.112029076E-1,4.851913452E-1,-6.287873268E0
4.313950231E0,2.514088154E-1,1.850318909E-1,-6.713680744E0
4.316452694E0,1.195499897E-1,-1.057062149E-1,-7.290393829E0
4.318955228E0,8.845329285E-5,-2.098379135E-1,-7.406458378E0
4.321457918E0,-3.162584305E-1,-3.438129425E-1,-7.324398994E0
4.323960459E0,-6.755537987E-1,-4.613685608E-1,-7.243736267E0
4.326462920E0,-9.938172102E-1,-5.764551163E-1,-6.980139732E0
4.328965610E0,-1.387983084E0,-6.736116409E-1,-6.636113644E0
4.331468113E0,-1.801707625E0,-8.201112747E-1,-6.205199242E0
4.333970803E0,-2.098905802E0,-1.037263870E0,-5.612025261E0
4.336473267E0,-2.430136919E0,-1.291025162E0,-5.355326653E0
4.338975803E0,-2.840437889E0,-1.561317444E0,-5.165146351E0
4.341478496E0,-3.213204145E0,-1.910163879E0,-4.838533401E0
4.343981017E0,-3.579056501E0,-2.299201012E0,-4.646201134E0
4.346483479E0,-3.889734268E0,-2.666838646E0,-4.346092224E0
4.348986169E0,-4.011301517E0,-2.858970642E0,-3.974956512E0
4.351488709E0,-4.014558315E0,-3.352587700E0,-3.828705788E0
4.353991404E0,-4.033962727E0,-3.862827301E0,-3.341657639E0
4.356493867E0,-4.114698887E0,-4.646821976E0,-2.327677727E0
4.358996404E0,-4.056943893E0,-5.712066650E0,-1.419575214E0
4.361499096E0,-3.463923931E0,-6.522772789E0,-4.802488089E-1
4.364001656E0,-2.640947342E0,-6.723867416E0,-4.046654701E-2
4.366504118E0,-1.730224252E0,-6.788241386E0,8.956420422E-2
4.369006808E0,-7.081470490E-1,-6.834246635E0,4.453376532E-1
4.371509349E0,1.412999630E-1,-6.734751701E0,4.869414568E-1
4.374012010E0,1.002556562E0,-6.521065712E0,5.189464092E-1
4.376514551E0,1.636800766E0,-6.155002594E0,4.617992043E-1
4.379017012E0,1.577610016E0,-5.947861671E0,1.542270780E-1
4.381519702E0,1.146826982E0,-5.863636017E0,1.753462553E-1
4.384022243E0,9.152095318E-1,-5.631105423E0,1.847904921E-2
4.386524675E0,7.266116142E-1,-5.227192879E0,-2.579313517E-1
4.389027443E0,6.500961781E-1,-4.760027885E0,-4.884317517E-1
4.391529906E0,5.177559853E-1,-4.412366867E0,-6.933201551E-1
4.394032597E0,4.902846813E-1,-3.986153603E0,-1.002974749E0
4.396535055E0,3.557560444E-1,-3.629397392E0,-1.064149380E0
4.399037822E0,3.660938740E-1,-3.252249718E0,-1.077347040E0
4.401540286E0,5.256066322E-1,-2.832418442E0,-1.135944843E0
4.404042824E0,5.166094303E-1,-2.356182098E0,-1.125527859E0
4.406545505E0,5.424816608E-1,-1.733428001E0,-1.225094676E0
4.409048045E0,2.758314610E-1,-1.196917534E0,-1.060458302E0
4.411550507E0,1.813170910E-1,-7.577505112E-1,-8.244877458E-1
4.414053197E0,7.118535042E-2,-3.763275146E-1,-3.025189638E-1
4.416555728E0,-1.296572685E-1,1.915931702E-2,4.077279568E-1
4.419058419E0,-4.639306068E-1,3.463621140E-1,1.026928782E0
4.421560882E0,-8.410181999E-1,6.060495377E-1,1.298732996E0
4.424063419E0,-1.213218689E0,8.055524826E-1,1.379390478E0
4.426566067E0,-1.612221718E0,9.467525482E-1,1.005931616E0
4.429068608E0,-2.117237568E0,9.802827835E-1,7.554905415E-1
4.431571069E0,-2.574358940E0,9.873123169E-1,7.790438533E-1
4.434073759E0,-2.844831228E0,1.088685036E0,8.223969936E-1
4.436576320E0,-3.125263214E0,1.037132263E0,7.416437864E-1
4.439079010E0,-3.257065535E0,9.424972534E-1,7.874696851E-1
4.441581474E0,-3.308435440E0,8.494291306E-1,9.027322531E-1
4.444084010E0,-3.379449844E0,7.620620728E-1,1.026317596E0
4.446586717E0,-3.407999277E0,6.956586838E-1,1.173975348E0
4.449089257E0,-3.342863560E0,7.036981583E-1,1.316132069E0
4.451591947E0,-3.186576366E0,6.798772812E-1,1.366922736E0
4.454094411E0,-2.943600178E0,6.022958755E-1,1.324658632E0
4.456596947E0,-2.677196503E0,5.935068130E-1,1.231822491E0
4.459099640E0,-2.487273693E0,5.129098892E-1,1.083674669E0
4.461602180E0,-2.304765701E0,3.896541595E-1,8.857036233E-1
4.464104642E0,-2.002560854E0,2.687101364E-1,6.787067056E-1
4.466607332E0,-1.812385201E0,1.510477066E-1,5.347368717E-1
4.469109872E0,-1.560255647E0,8.646392822E-2,5.020655990E-1
4.471612563E0,-1.344699860E0,-2.156925201E-2,4.706218839E-1
4.474115103E0,-1.328235149E0,-1.222381592E-1,3.916273713E-1
4.476617818E0,-1.259583712E0,-1.540374756E-1,3.090518713E-1
4.479120281E0,-1.135618687E0,-1.150140762E-1,2.495506108E-1
4.481622818E0,-1.111260295E0,-1.017150879E-1,7.004921138E-2
4.484125510E0,-1.145232677E0,2.811431885E-3,-2.084277570E-2
4.486628045E0,-1.194442511E0,1.563310623E-1,-7.631607354E-2
4.489130507E0,-1.232101440E0,2.802629471E-1,-2.019024342E-1
4.491633197E0,-1.344105005E0,2.652645111E-1,-2.838285565E-1
4.494135738E0,-1.527478695E0,4.610748291E-1,-3.242565989E-1
4.496638232E0,-1.636830449E0,6.634712219E-1,-3.698351085E-1
4.499140923E0,-1.591797709E0,8.376016617E-1,-4.911427796E-1
4.501643463E0,-1.605689764E0,9.777498245E-1,-5.220651627E-1
4.504146153E0,-1.533277988E0,1.062802315E0,-5.482291579E-1
4.506648645E0,-1.485510349E0,1.096883774E0,-5.434651375E-1
4.509151181E0,-1.450171709E0,1.135923386E0,-4.527574480E-1
4.511653874E0,-1.386809587E0,1.285868645E0,-4.143127501E-1
4.514156414E0,-1.287134886E0,1.343832016E0,-4.145300686E-1
4.516659104E0,-1.273085713E0,1.409890175E0,-4.354989529E-1
4.519161655E0,-1.263559103E0,1.446836472E0,-3.715016842E-1
4.521664116E0,-1.253604293E0,1.488724709E0,-2.723689377E-1
4.524166807E0,-1.246316314E0,1.534632683E0,-1.664199829E-1
4.526669347E0,-1.249611974E0,1.607529640E0,-4.463845491E-2
4.529172032E0,-1.286796689E0,1.632973671E0,6.922969222E-2
4.531674496E0,-1.249307394E0,1.662224293E0,9.127420187E-2
4.534177033E0,-1.208879948E0,1.679086685E0,1.312622428E-1
4.536679725E0,-1.097669840E0,1.743312836E0,2.722375393E-1
4.539182275E0,-8.641072512E-1,1.702995300E0,3.588736653E-1
4.541684966E0,-6.318581104E-1,1.665416241E0,3.400595486E-1
4.544187429E0,-5.793145895E-1,1.600587845E0,3.056235313E-1
4.546689966E0,-5.293054581E-1,1.647044182E0,2.455043197E-1
4.549192687E0,-5.116591454E-1,1.663217068E0,8.425951004E-2
4.551695227E0,-4.322831631E-1,1.637402534E0,-7.010293007E-2
4.554197689E0,-3.313301802E-1,1.615315437E0,-2.353948355E-1
4.556700379E0,-2.576038837E-1,1.550997734E0,-3.553318381E-1
4.559202930E0,-2.856631279E-1,1.557789803E0,-4.380415082E-1
4.561705620E0,-2.608458996E-1,1.545307159E0,-5.034595132E-1
4.564208084E0,-2.087050676E-1,1.530691147E0,-5.329012275E-1
4.566710620E0,-1.679530144E-1,1.462811470E0,-5.861091018E-1
4.569213317E0,-1.934775114E-1,1.456901550E0,-6.374979019E-1
4.571715858E0,-2.185326815E-1,1.497817039E0,-7.530631423E-1
4.574218319E0,-2.515614033E-1,1.480448723E0,-8.602972031E-1
4.576721087E0,-2.003109455E-1,1.469969749E0,-8.969084620E-1
4.579223555E0,-1.486408710E-1,1.429280281E0,-9.273318052E-1
4.581726245E0,-7.674586773E-2,1.396518707E0,-8.269776106E-1
4.584228709E0,-3.222274780E-2,1.394499779E0,-7.306674719E-1
4.586731476E0,-1.630687714E-2,1.402236938E0,-5.776175261E-1
4.589233964E0,-3.870391846E-2,1.400010109E0,-3.443763256E-1
4.591736502E0,2.221643925E-2,1.385664940E0,-1.233795881E-1
4.594239193E0,7.803642750E-2,1.368823051E0,1.825721860E-1
4.596741656E0,1.369795799E-1,1.317683220E0,2.991609573E-1
4.599244159E0,2.511725426E-1,1.279280663E0,3.865929842E-1
4.601746851E0,3.359158039E-1,1.192224503E0,3.663190007E-1
4.604249391E0,4.724638462E-1,1.134823799E0,2.438170910E-1
4.606752082E0,5.765880346E-1,1.042352676E0,1.634787321E-1
4.609254535E0,6.295233965E-1,9.064550400E-1,8.678793907E-2
4.611757072E0,8.118798733E-1,7.229652405E-1,6.370866299E-2
4.614259764E0,9.101345539E-1,6.507673264E-1,5.570173264E-3
4.616762304E0,1.036837697E0,5.507793427E-1,3.900897503E-2
4.619264761E0,1.156453371E0,3.517322540E-1,1.108117104E-1
4.621767451E0,1.269518733E0,1.999654770E-1,7.849049568E-2
4.624269992E0,1.383273840E0,1.105117798E-2,1.316739321E-1
4.626772682E0,1.521518588E0,-2.304859161E-1,2.524054050E-1
4.629275146E0,1.648085594E0,-5.288095474E-1,3.740170002E-1
4.631777682E0,1.855524182E0,-7.392578125E-1,4.419023991E-1
4.634280374E0,1.966966748E0,-1.008760452E0,5.679357052E-1
4.636782915E0,2.011996746E0,-1.269143105E0,7.360938787E-1
4.639285615E0,2.060847282E0,-1.492378235E0,8.414494991E-1
4.641788079E0,2.185976982E0,-1.717729568E0,9.040529132E-1
4.644290615E0,2.276418209E0,-1.887274742E0,1.003726721E0
4.646793308E0,2.336985111E0,-1.984105110E0,1.090528727E0
4.649295838E0,2.338625669E0,-2.073292732E0,1.185299397E0
4.651798528E0,2.330363989E0,-2.036768913E0,1.295633316E0
4.654300992E0,2.378049135E0,-2.023482323E0,1.415338516E0
4.656803528E0,2.364662886E0,-1.984497070E0,1.542554498E0
4.659306207E0,2.292233944E0,-1.898777962E0,1.662602425E0
4.661808747E0,2.271765709E0,-1.826972008E0,1.839963317E0
4.664311209E0,2.240667582E0,-1.711824417E0,1.931088924E0
4.666813899E0,2.167307854E0,-1.541445732E0,2.101566315E0
4.669316401E0,2.078557491E0,-1.371063232E0,2.211028576E0
4.671819092E0,2.025432110E0,-1.263643265E0,2.339096308E0
4.674321632E0,1.940822244E0,-1.120527267E0,2.471681833E0
4.676824094E0,1.916550994E0,-8.962945938E-1,2.573504686E0
4.679326784E0,1.929994464E0,-7.214326859E-1,2.722714186E0
4.681829305E0,1.898093343E0,-5.581264496E-1,2.808055162E0
4.684331995E0,1.875068903E0,-4.674768448E-1,2.971574783E0
4.686834458E0,1.865853429E0,-3.895101547E-1,3.122262001E0
4.689336995E0,1.907400370E0,-3.230886459E-1,3.306514502E0
4.691839692E0,1.939375520E0,-3.738403320E-1,3.457879066E0
4.694342233E0,1.927014828E0,-4.655170441E-1,3.688352585E0
4.696844694E0,1.880506992E0,-6.141958237E-1,3.988388062E0
4.699347385E0,1.754872799E0,-8.619575500E-1,4.335202217E0
4.701849930E0,1.550646305E0,-1.094686508E0,4.679055214E0
4.704352620E0,1.235394955E0,-1.370417595E0,4.970270634E0
4.706855084E0,9.508726597E-1,-1.707659721E0,5.310521603E0
4.709357620E0,5.545709133E-1,-2.040221214E0,5.591889858E0
4.711860289E0,1.545090675E-1,-2.342411041E0,5.840926170E0
4.714362829E0,-2.660255432E-1,-2.645950317E0,5.976815701E0
4.716865291E0,-7.864420414E-1,-2.948040009E0,6.102949142E0
4.719368058E0,-1.340926528E0,-3.194925308E0,6.142028332E0
4.721870526E0,-1.789606810E0,-3.321221352E0,6.044686317E0
4.724373217E0,-2.258506775E0,-3.661121368E0,5.910736084E0
4.726875680E0,-2.864830494E0,-4.081076622E0,5.902709961E0
4.729378448E0,-3.470911026E0,-4.412288666E0,5.797294140E0
4.731880915E0,-4.057481766E0,-4.648230553E0,5.546490192E0
4.734383454E0,-4.818343163E0,-4.980225563E0,5.344888687E0
4.736886144E0,-5.586728096E0,-5.129037857E0,5.170016289E0
4.739388684E0,-6.306514263E0,-5.216595650E0,4.940461159E0
4.741891151E0,-6.975817204E0,-5.402056694E0,4.770567894E0
4.744393841E0,-7.531149864E0,-5.495197296E0,4.569341660E0
4.746896382E0,-8.048060417E0,-5.534169197E0,4.208923340E0
4.749399072E0,-8.582100868E0,-5.500736237E0,3.765236139E0
4.751901545E0,-9.078029633E0,-5.429782867E0,3.458366394E0
4.754404082E0,-9.373052597E0,-5.305042267E0,3.229893684E0
4.756906774E0,-9.155102730E0,-5.189992905E0,3.070893526E0
4.759409315E0,-8.762531281E0,-5.180684090E0,2.977339029E0
4.761911809E0,-8.308843613E0,-5.204172134E0,3.119856596E0
4.764414500E0,-7.744481087E0,-5.453945160E0,3.497212172E0
4.766917040E0,-7.058790207E0,-5.718947411E0,4.043841839E0
4.769419730E0,-6.588837624E0,-5.811826706E0,4.648067951E0
4.771922218E0,-6.124494076E0,-6.279654503E0,5.346864223E0
4.774424754E0,-5.835480213E0,-6.744427681E0,6.049548149E0
4.776927447E0,-5.726649284E0,-6.903615952E0,6.711969376E0
4.779429987E0,-5.681801796E0,-7.022375107E0,7.298098564E0
4.781932464E0,-5.859124184E0,-7.117786407E0,7.718102932E0
4.784435154E0,-6.013609886E0,-7.056797981E0,8.066005707E0
4.786937694E0,-6.072282791E0,-6.903063774E0,8.304241180E0
4.789440385E0,-6.279922962E0,-6.684064865E0,8.240768433E0
4.791942901E0,-6.362730980E0,-6.482494354E0,8.437888145E0
4.794445363E0,-6.295124531E0,-6.353989601E0,8.698900223E0
4.796948053E0,-6.032362938E0,-6.102761269E0,8.854262352E0
4.799450594E0,-5.367642879E0,-5.854903221E0,8.825485229E0
4.801953031E0,-4.297327995E0,-5.577119827E0,8.585869789E0
4.804455798E0,-3.301698923E0,-5.286597252E0,8.336046219E0
4.806958262E0,-2.405005455E0,-5.047467232E0,8.132749557E0
4.809460952E0,-1.548549533E0,-4.828660965E0,7.793291569E0
4.811963493E0,-8.147978783E-1,-4.645211220E0,7.611536503E0
4.814466183E0,-2.065389156E-1,-4.408789635E0,7.328900337E0
4.816968723E0,3.874541521E-1,-4.156231880E0,7.198508263E0
4.819471185E0,9.384992123E-1,-3.873927116E0,7.068016052E0
4.821973875E0,1.312021375E0,-3.528078079E0,6.798096657E0
4.824476416E0,1.785550237E0,-3.221099854E0,6.515738010E0
4.826979106E0,2.110652447E0,-2.845161438E0,6.183063984E0
4.829481570E0,2.386158466E0,-2.582165718E0,5.923223495E0
4.831984120E0,2.694961548E0,-2.311946869E0,5.649542332E0
4.834486812E0,3.179093838E0,-2.004319191E0,5.206538200E0
4.836989353E0,3.637169600E0,-1.786742210E0,4.838108063E0
4.839491814E0,3.937402725E0,-1.587226868E0,4.571757317E0
4.841994505E0,4.238821030E0,-1.413045883E0,4.153885365E0
4.844497045E0,4.504196644E0,-1.260422707E0,3.487692833E0
4.846999736E0,4.659390450E0,-1.135218620E0,2.896205902E0
4.849502199E0,4.868527889E0,-1.063384056E0,2.320366383E0
4.852004741E0,5.031308174E0,-1.057983398E0,1.726545095E0
4.854507433E0,5.245121956E0,-1.237728119E0,1.260171056E0
4.857009973E0,5.643221855E0,-1.408810616E0,7.406832576E-1
4.859512664E0,6.173567772E0,-1.692255020E0,1.868939400E-2
4.862015132E0,6.429780006E0,-1.952081680E0,-6.516462564E-1
4.864517669E0,6.614478588E0,-2.250474930E0,-1.149563432E0
4.867020361E0,6.976244926E0,-2.571259499E0,-1.822442412E0
4.869522825E0,7.405828953E0,-2.972279549E0,-2.421184540E0
4.872025596E0,7.707779408E0,-3.499379158E0,-2.560234547E0
4.874528059E0,8.028779984E0,-4.038329124E0,-2.589184761E0
4.877030598E0,8.671232224E0,-4.457684517E0,-2.852268934E0
4.879533288E0,9.294717789E0,-4.851398468E0,-2.735071421E0
4.882035820E0,9.537046432E0,-5.301772118E0,-2.733724117E0
4.884538281E0,9.866835594E0,-5.845634460E0,-2.886823177E0
4.887040971E0,9.952701569E0,-6.089725494E0,-2.956561089E0
4.889543512E0,9.974970818E0,-6.209689140E0,-3.218875170E0
4.892046202E0,9.895009041E0,-6.403965950E0,-3.216586113E0
4.894548661E0,9.716341972E0,-6.468246460E0,-3.256489515E0
4.897051197E0,9.419500351E0,-6.418040276E0,-3.361626863E0
4.899553890E0,9.050840378E0,-6.223770142E0,-3.313351154E0
4.902056430E0,8.611591339E0,-6.001964569E0,-3.197951078E0
4.904558863E0,8.160035133E0,-5.719570160E0,-3.117258310E0
4.907061553E0,7.676617622E0,-5.448916435E0,-3.067509651E0
4.909564093E0,7.202011108E0,-5.240517616E0,-3.176885366E0
4.912066784E0,6.686581612E0,-5.022134781E0,-3.186441898E0
4.914569290E0,6.085842609E0,-4.780284882E0,-3.063279867E0
4.917071752E0,5.495003223E0,-4.650453568E0,-2.978013039E0
4.919574442E0,5.081945419E0,-4.469325066E0,-3.013776779E0
4.922076982E0,4.861939907E0,-4.419554710E0,-3.123033047E0
4.924579673E0,4.429965973E0,-4.329561234E0,-3.057248116E0
4.927082122E0,4.002258778E0,-4.219312668E0,-2.930583239E0
4.929584659E0,3.716212034E0,-4.131563187E0,-2.822540760E0
4.932087351E0,3.491364002E0,-4.104728699E0,-2.715641975E0
4.934589892E0,3.241216183E0,-4.029361725E0,-2.645018578E0
4.937092343E0,2.839520454E0,-3.983756065E0,-2.560700417E0
4.939595110E0,2.715846062E0,-3.969739914E0,-2.438599348E0
4.942097574E0,2.604105949E0,-3.892439842E0,-2.439025640E0
4.944600264E0,2.307476997E0,-3.810746193E0,-2.372808218E0
4.947102795E0,2.199033260E0,-3.873733521E0,-2.382448673E0
4.949605485E0,2.553530693E0,-3.773345947E0,-2.734272003E0
4.952107949E0,2.249836922E0,-3.691370010E0,-2.980065107E0
4.954610485E0,1.717747450E0,-3.696121216E0,-2.990765572E0
4.957113187E0,1.113644600E0,-3.632165909E0,-3.125124454E0
4.959615728E0,7.574266195E-1,-3.522300720E0,-3.285661221E0
4.962118189E0,4.271409512E-1,-3.334157944E0,-3.578006268E0
4.964620880E0,-6.764304638E-2,-3.240822792E0,-4.021808624E0
4.967123420E0,-7.136895657E-1,-3.171957970E0,-4.146895409E0
4.969626124E0,-1.709249854E0,-3.163592339E0,-4.053500652E0
4.972128588E0,-2.606338263E0,-3.165599823E0,-3.746451855E0
4.974631124E0,-3.271327972E0,-2.990934372E0,-3.286985397E0
4.977133817E0,-3.541284561E0,-2.982868195E0,-2.932958603E0
4.979636372E0,-3.519914389E0,-2.942003250E0,-2.581054688E0
4.982138834E0,-3.406340599E0,-2.821617126E0,-2.130074263E0
4.984641524E0,-3.239610672E0,-2.728793144E0,-2.077523947E0
4.987144065E0,-3.393134832E0,-2.573539734E0,-1.949047208E0
4.989646774E0,-3.597870350E0,-2.275994301E0,-1.668716192E0
4.992149237E0,-3.670871019E0,-1.983326912E0,-1.666378140E0
4.994651774E0,-3.598453045E0,-1.788210869E0,-2.051994085E0
4.997154466E0,-3.914209843E0,-1.680606842E0,-2.475838184E0
4.999657007E0,-3.896578074E0,-1.538212776E0,-2.588976622E0
5.002159697E0,-3.664463043E0,-1.431483269E0,-2.414520502E0
5.004662160E0,-3.339052200E0,-1.427478790E0,-2.260493279E0
5.007164697E0,-2.441873074E0,-1.244395256E0,-2.254288673E0
5.009667389E0,-1.686292887E0,-1.041992188E0,-2.061301470E0
5.012169935E0,-1.066198468E0,-8.740682602E-1,-1.601464748E0
5.014672625E0,-5.827166438E-1,-6.771135330E-1,-1.178618431E0
5.017175089E0,-1.361264586E-1,-4.190149307E-1,-1.136669159E0
5.019677625E0,2.891334295E-1,-1.519813538E-1,-1.279867172E0
5.022180317E0,4.653470516E-1,-6.833076477E-3,-1.352657795E0
5.024682858E0,6.289664507E-1,2.019453049E-1,-1.759673238E0
5.027185548E0,6.973521709E-1,4.968614578E-1,-1.918625355E0
5.029688012E0,5.731070042E-1,6.411457062E-1,-2.239286661E0
5.032190548E0,5.600216389E-1,8.502178192E-1,-2.523522139E0
5.034693240E0,8.051860332E-1,1.028194427E0,-2.701409101E0
5.037195781E0,1.223323226E0,1.127491951E0,-2.999475718E0
5.039698242E0,1.624625444E0,1.188872337E0,-3.340858936E0
5.042200928E0,1.645964503E0,1.246989250E0,-3.983857870E0
5.044703468E0,1.444986701E0,1.424177170E0,-4.574471474E0
5.047206159E0,1.211018085E0,1.618902206E0,-4.922581673E0
5.049708622E0,9.747852087E-1,1.791856289E0,-5.338000298E0
5.052211178E0,7.088351250E-1,1.901956558E0,-5.769100189E0
5.054713870E0,5.048639774E-1,1.943917751E0,-6.252305031E0
5.057216410E0,4.043610096E-1,2.191386700E0,-6.303065300E0
5.059718872E0,5.229417086E-1,2.378483772E0,-6.353460312E0
5.062221577E0,5.067219734E-1,2.608258724E0,-6.524188995E0
5.064724118E0,3.411360979E-1,2.832360268E0,-6.588811874E0
5.067226808E0,2.133147717E-1,3.085282803E0,-6.635332584E0
5.069729348E0,6.946241856E-2,3.273852348E0,-6.695034981E0
5.072231809E0,1.620638371E-2,3.430779457E0,-6.969749451E0
5.074734499E0,9.461653233E-2,3.681180954E0,-7.015151501E0
5.077237040E0,7.090485096E-2,3.951399803E0,-7.053575516E0
5.079739501E0,4.241597652E-2,4.237313271E0,-6.985652924E0
5.082242289E0,-1.335333586E-1,4.510179996E0,-7.219366074E0
5.084744752E0,-2.126995325E-1,4.858905792E0,-7.325259209E0
5.087247442E0,-9.518468380E-2,5.061191082E0,-7.723617554E0
5.089749983E0,8.240842819E-2,5.212931156E0,-7.905143738E0
5.092252682E0,3.080332279E-1,5.480852127E0,-7.695190430E0
5.094755146E0,6.431164742E-1,5.705193520E0,-7.681438446E0
