"Time (s)","Acceleration x (m/s^2)","Acceleration y (m/s^2)","Acceleration z (m/s^2)"
4.789917400E-2,2.926050186E0,4.189949989E0,8.892000198E0
5.039947200E-2,2.979000092E0,4.216950417E0,8.920950890E0
5.290200600E-2,3.019050121E0,4.276950359E0,8.935050011E0
5.540499600E-2,2.988000154E0,4.291050434E0,8.947050095E0
5.790776500E-2,2.964000225E0,4.360949993E0,8.932950020E0
6.041030500E-2,2.908950090E0,4.341000080E0,8.893950462E0
6.291307300E-2,2.811000109E0,4.348950386E0,8.806050301E0
6.541584700E-2,2.629050016E0,4.276950359E0,8.746050835E0
6.791861600E-2,2.562000036E0,4.171050072E0,8.727000237E0
7.042138500E-2,2.635950089E0,4.270050049E0,8.715000153E0
7.292408000E-2,2.631000042E0,4.321950436E0,8.755050659E0
7.542684700E-2,2.284050226E0,4.399050236E0,8.704950333E0
7.792961600E-2,2.173950195E0,4.372950077E0,8.667000771E0
8.043238500E-2,2.566950083E0,4.080000401E0,8.451000214E0
8.293515500E-2,2.682000160E0,3.946050167E0,8.308050156E0
8.543792400E-2,2.815950155E0,4.152000427E0,8.518050194E0
8.794046400E-2,2.847000122E0,4.308000088E0,8.698050499E0
9.044345700E-2,2.739000082E0,4.474950314E0,8.770050049E0
9.294622800E-2,2.629050016E0,4.537950039E0,8.820000648E0
9.544876700E-2,2.527950048E0,4.555050373E0,8.794050217E0
9.795154300E-2,2.500050068E0,4.404000282E0,8.583000183E0
1.004543120E-1,2.490000010E0,4.258049965E0,8.383950233E0
1.029570340E-1,2.586000204E0,4.240950108E0,8.346000671E0
1.054598030E-1,2.670000076E0,4.243050098E0,8.299950600E0
1.079625720E-1,2.442000151E0,4.270050049E0,8.230950356E0
1.104652810E-1,2.176050186E0,4.360949993E0,8.110950470E0
1.129680490E-1,2.478000164E0,4.284000397E0,7.981950283E0
1.154707980E-1,2.742000103E0,4.261950016E0,7.989000320E0
1.179735670E-1,2.812950134E0,4.288949966E0,7.936050415E0
1.204763360E-1,2.824950218E0,4.240950108E0,7.857000351E0
1.229791060E-1,2.749050140E0,4.258049965E0,7.756950378E0
1.254816460E-1,2.698050022E0,4.375050068E0,7.635000229E0
1.279844130E-1,2.550000191E0,4.513950348E0,7.498050213E0
1.304871830E-1,2.041949987E0,4.461000443E0,7.321050167E0
1.329899520E-1,2.191050053E0,4.348950386E0,7.186950207E0
1.354927210E-1,2.605050087E0,4.281000137E0,7.129050255E0
1.379954900E-1,2.911950111E0,4.303050041E0,7.024050236E0
1.404982600E-1,3.124950171E0,4.308000088E0,6.930000305E0
1.430009540E-1,3.211050034E0,4.288949966E0,7.042950153E0
1.455037010E-1,3.240000248E0,4.291050434E0,7.195950508E0
1.480064700E-1,3.175050259E0,4.288949966E0,7.363950253E0
1.505092400E-1,3.010050058E0,4.300950050E0,7.486050129E0
1.530120180E-1,2.926050186E0,4.324950218E0,7.563000202E0
1.555147870E-1,2.856000185E0,4.264950275E0,7.651050568E0
1.580175560E-1,2.836950064E0,4.272000313E0,7.708950520E0
1.605200970E-1,2.944950104E0,4.223999977E0,8.050950050E0
1.630228550E-1,3.187050104E0,4.207050323E0,8.242950439E0
1.655256240E-1,3.016950130E0,4.188000202E0,7.927050591E0
1.680283930E-1,3.133950233E0,4.107000351E0,7.942950249E0
1.705311630E-1,3.307050228E0,4.072950363E0,8.062950134E0
1.730339320E-1,3.619950056E0,4.054049969E0,8.105999947E0
1.755367010E-1,4.210050106E0,3.963000298E0,8.263950348E0
1.780393950E-1,4.267050266E0,3.903000116E0,8.365050316E0
1.805422400E-1,4.255050182E0,3.916950226E0,8.446050644E0
1.830449340E-1,4.270050049E0,3.999000072E0,8.542050362E0
1.855477010E-1,4.192950249E0,4.071000099E0,8.590050697E0
1.880504700E-1,4.056000233E0,4.132950306E0,8.545050621E0
1.905532540E-1,3.952950239E0,4.118999958E0,8.446050644E0
1.930560230E-1,3.795000076E0,4.116000175E0,8.379000664E0
1.955587920E-1,3.622950077E0,4.132950306E0,8.245050430E0
1.980613190E-1,3.517950058E0,4.071000099E0,8.142000198E0
2.005640860E-1,3.429000139E0,4.044000149E0,8.236050606E0
2.030668550E-1,3.121950150E0,4.066050053E0,8.130000114E0
2.055696530E-1,2.752950191E0,4.024950027E0,7.939050198E0
2.080724230E-1,2.887950182E0,3.928950071E0,7.924050331E0
2.105751920E-1,3.061950207E0,3.874050140E0,8.014950752E0
2.130778950E-1,3.108000040E0,3.889050245E0,8.158950806E0
2.155806620E-1,3.127050161E0,3.855000257E0,8.278950691E0
2.180834320E-1,3.141000032E0,3.810000181E0,8.371950150E0
2.205862010E-1,3.148950100E0,3.850050211E0,8.454000473E0
2.230889700E-1,3.118050098E0,3.834000111E0,8.539950371E0
2.255915110E-1,2.782050133E0,3.877050161E0,8.478000641E0
2.280945090E-1,2.856000185E0,3.817050219E0,8.475000381E0
2.305970490E-1,2.979000092E0,3.742950201E0,8.590050697E0
2.331000470E-1,2.896950245E0,3.822000265E0,8.679000854E0
2.356025870E-1,2.875950098E0,3.802050114E0,8.851050377E0
2.381053740E-1,3.085950136E0,3.643950224E0,8.929950714E0
2.406081430E-1,3.229950190E0,3.544050217E0,8.988000870E0
2.431108830E-1,3.321000099E0,3.505950212E0,8.971050262E0
2.456136520E-1,3.367050171E0,3.505950212E0,8.961000443E0
2.481163470E-1,3.313950062E0,3.508050203E0,8.997000694E0
2.506191290E-1,3.331050158E0,3.498000145E0,9.091050148E0
2.531218980E-1,3.264000177E0,3.462000132E0,9.036000252E0
2.556246520E-1,3.241950035E0,3.462000132E0,8.995050430E0
2.581274220E-1,3.196950197E0,3.502950191E0,8.905950546E0
2.606301910E-1,3.124950171E0,3.513000250E0,8.857950211E0
2.631329800E-1,3.058050156E0,3.510000229E0,8.776950836E0
2.656355210E-1,3.007050037E0,3.532050133E0,8.700000763E0
2.681382880E-1,2.983050108E0,3.517050266E0,8.581050873E0
2.706410570E-1,2.899950027E0,3.508050203E0,8.506050110E0
2.731438260E-1,2.859000206E0,3.534000158E0,8.374950409E0
2.756465960E-1,2.800950050E0,3.520050049E0,8.236050606E0
2.781493650E-1,2.755950212E0,3.501000166E0,8.161050797E0
2.806521340E-1,2.718000174E0,3.522000074E0,8.082000732E0
2.831549030E-1,2.710050106E0,3.466950178E0,8.029950142E0
2.856575980E-1,2.674050093E0,3.448050261E0,7.989000320E0
2.881603360E-1,2.646000147E0,3.426000118E0,7.941000462E0
2.906631050E-1,2.614950180E0,3.364050150E0,7.921950340E0
2.931658880E-1,2.574000120E0,3.349950075E0,7.891050339E0
2.956686580E-1,2.569050074E0,3.321000099E0,7.860000610E0
2.981714270E-1,2.518950224E0,3.307050228E0,7.881000519E0
3.006739860E-1,2.506950140E0,3.297000170E0,7.893000603E0
3.031767530E-1,2.524050236E0,3.253950119E0,7.893000603E0
3.056795230E-1,2.533050060E0,3.208950043E0,7.948050499E0
3.081823130E-1,2.539950132E0,3.175050259E0,7.954950333E0
3.106850820E-1,2.539950132E0,3.177000046E0,7.951050282E0
3.131878510E-1,2.598000050E0,3.180000067E0,7.957950592E0
3.156905460E-1,2.515950203E0,3.280050039E0,7.942950249E0
3.181933130E-1,2.494950056E0,3.241950035E0,7.917000294E0
3.206960820E-1,2.715000153E0,3.133950233E0,7.860000610E0
3.231988510E-1,2.884950161E0,3.060000181E0,7.813950539E0
3.257016210E-1,2.998050213E0,3.012000084E0,7.777950287E0
3.282043900E-1,2.980950117E0,3.012000084E0,7.735050201E0
3.307069300E-1,2.695950031E0,3.070050240E0,7.635000229E0
3.332099320E-1,3.007050037E0,2.880000114E0,7.519950390E0
3.357127040E-1,3.300000191E0,2.749050140E0,7.498050213E0
3.382151940E-1,3.573000193E0,2.703000069E0,7.618050575E0
3.407179610E-1,3.694950104E0,2.610000134E0,7.599000454E0
3.432207310E-1,3.385950089E0,2.746050119E0,7.467000484E0
3.457235050E-1,3.481950283E0,2.650050163E0,7.273050308E0
3.482262740E-1,3.697050095E0,2.542950153E0,7.227000237E0
3.507290430E-1,3.834000111E0,2.574000120E0,7.237050533E0
3.532318130E-1,3.985050201E0,2.575950146E0,7.177050114E0
3.557345070E-1,4.200000286E0,2.515950203E0,7.120050430E0
3.582372740E-1,4.356000423E0,2.421000004E0,7.048050404E0
3.607400430E-1,4.510950089E0,2.409000158E0,6.976050377E0
3.632428130E-1,4.543050289E0,2.362950087E0,6.906000137E0
3.657455820E-1,4.497000217E0,2.394000053E0,6.841950417E0
3.682483510E-1,4.429950237E0,2.346000195E0,6.825000286E0
3.707508910E-1,4.300950050E0,2.320050001E0,6.835050106E0
3.732536640E-1,4.195050240E0,2.274000168E0,6.885000229E0
3.757566640E-1,4.144950390E0,2.253000021E0,6.880050182E0
3.782592040E-1,4.128000259E0,2.239050150E0,6.796050549E0
3.807619370E-1,4.135050297E0,2.245950222E0,6.789000511E0
3.832647070E-1,4.179000378E0,2.239050150E0,6.717000484E0
3.857674760E-1,4.243050098E0,2.254950047E0,6.625950336E0
3.882702500E-1,4.261950016E0,2.302950144E0,6.588000298E0
3.907730190E-1,4.223999977E0,2.362950087E0,6.459000111E0
3.932757140E-1,4.090050220E0,2.410950184E0,6.339000225E0
3.957784810E-1,3.952950239E0,2.470950127E0,6.223950386E0
3.982812500E-1,3.805050135E0,2.491950035E0,6.154050350E0
4.007840190E-1,3.733050108E0,2.512050152E0,6.087000370E0
4.032867890E-1,3.264000177E0,2.647950172E0,5.938950062E0
4.057895580E-1,3.370950222E0,2.512050152E0,5.716050148E0
4.082923270E-1,3.709050179E0,2.308050156E0,5.635050297E0
4.107950960E-1,3.850050211E0,2.200050116E0,5.635050297E0
4.132976320E-1,4.000950336E0,2.125950098E0,5.601000309E0
4.158003990E-1,4.068000317E0,2.011049986E0,5.581950188E0
4.183031630E-1,4.099050045E0,1.924950123E0,5.587050438E0
4.208059330E-1,4.051949978E0,1.891050100E0,5.653950214E0
4.233087020E-1,3.628050089E0,2.052000046E0,5.790000439E0
4.258114670E-1,3.526950121E0,2.035050154E0,5.874000072E0
4.283142360E-1,3.694950104E0,1.908000112E0,5.989050388E0
4.308170050E-1,3.613050222E0,1.891050100E0,6.256950378E0
4.333197040E-1,3.489000082E0,1.848000050E0,6.493950367E0
4.358224710E-1,3.309000254E0,1.719000101E0,6.661950111E0
4.383252350E-1,3.156000137E0,1.606050134E0,6.789000511E0
4.408280040E-1,2.746050119E0,1.615950108E0,6.898950100E0
4.433307740E-1,2.478000164E0,1.563000083E0,6.897000313E0
4.458335430E-1,2.638950109E0,1.369050026E0,6.892050266E0
4.483360830E-1,2.719950199E0,1.249050021E0,7.074000359E0
4.508388510E-1,2.779950142E0,1.120050073E0,7.186950207E0
4.533418510E-1,2.806050062E0,9.960000515E-1,7.273050308E0
4.558443910E-1,2.806050062E0,9.259500504E-1,7.282050133E0
4.583471580E-1,2.542950153E0,9.480000734E-1,7.266000271E0
4.608499570E-1,2.368050098E0,8.809500337E-1,7.123950481E0
4.633527260E-1,2.398950100E0,7.819500566E-1,7.029000282E0
4.658554950E-1,2.410950184E0,7.200000286E-1,6.937950134E0
4.683581890E-1,2.386950016E0,7.180500627E-1,6.865950108E0
4.708610340E-1,2.416050196E0,6.940500140E-1,6.790950298E0
4.733637280E-1,2.482950211E0,5.380499959E-1,6.717000484E0
4.758664900E-1,2.485050201E0,3.580500185E-1,6.597000122E0
4.783692590E-1,2.521050215E0,2.719500065E-1,6.435000420E0
4.808720290E-1,2.518950224E0,1.999500096E-1,6.250050068E0
4.833747980E-1,2.416050196E0,8.100000024E-2,6.058950424E0
4.858775670E-1,2.358000040E0,-4.995000362E-2,5.809050083E0
4.883801080E-1,2.253000021E0,-1.240500063E-1,5.644050121E0
4.908828750E-1,2.179050207E0,-1.939500123E-1,5.419050217E0
4.933856440E-1,2.241000175E0,-3.300000131E-1,5.127000332E0
4.958884130E-1,2.149950027E0,-4.549500346E-1,4.921050072E0
4.983911820E-1,2.145000219E0,-6.060000062E-1,4.705049992E0
5.008939520E-1,2.173950195E0,-7.950000167E-1,4.456050396E0
5.033967210E-1,2.344050169E0,-8.599500656E-1,4.111050129E0
5.058994900E-1,2.599950075E0,-7.090500593E-1,3.625050068E0
5.084022400E-1,2.940000057E0,-4.759500325E-1,3.139050245E0
5.109050100E-1,3.276000261E0,-2.700000107E-1,2.739000082E0
5.134077380E-1,3.405000210E0,-4.995000362E-2,2.506950140E0
5.159105050E-1,3.952950239E0,-1.909500062E-1,2.242950201E0
5.184132450E-1,4.365000248E0,-4.260000288E-1,2.158950090E0
5.209160150E-1,4.540050030E0,-6.870000362E-1,2.239050150E0
5.234187840E-1,4.662000179E0,-9.340500236E-1,2.313000202E0
5.259215670E-1,4.729050159E0,-1.197000027E0,2.418000221E0
5.284243360E-1,4.702950001E0,-1.375050068E0,2.512050152E0
5.309268770E-1,4.606950283E0,-1.489950061E0,2.619000196E0
5.334296440E-1,4.392000198E0,-1.462950110E0,2.740950108E0
5.359324130E-1,3.946050167E0,-1.420050025E0,2.878050089E0
5.384351830E-1,3.982050180E0,-1.552050114E0,2.904000044E0
5.409379520E-1,3.831000090E0,-1.578000069E0,3.016950130E0
5.434407210E-1,3.618000269E0,-1.552050114E0,3.141000032E0
5.459434900E-1,3.537000179E0,-1.669050097E0,3.277950048E0
5.484462600E-1,3.436050177E0,-1.861050129E0,3.309000254E0
5.509490300E-1,3.358950138E0,-2.064000130E0,3.240000248E0
5.534518000E-1,3.312000275E0,-2.257950068E0,3.241950035E0
5.559545110E-1,3.364050150E0,-2.424000025E0,3.160950184E0
5.584572790E-1,3.421950102E0,-2.601000071E0,3.064950228E0
5.609600480E-1,3.573000193E0,-2.764050245E0,2.916000128E0
5.634628170E-1,3.834000111E0,-2.983950138E0,2.730000019E0
5.659655770E-1,4.083000183E0,-3.097050190E0,2.562000036E0
5.684683460E-1,4.381950378E0,-3.255000114E0,2.274000168E0
5.709708870E-1,4.771950245E0,-3.477000237E0,2.111999989E0
5.734736440E-1,5.211000443E0,-3.661950111E0,1.939050078E0
5.759764130E-1,5.400000095E0,-3.712050200E0,1.786050081E0
5.784791830E-1,5.484000206E0,-3.628050089E0,1.651950121E0
5.809819710E-1,5.497950077E0,-3.439050198E0,1.563000083E0
5.834847400E-1,5.509950161E0,-3.300000191E0,1.561050057E0
5.859875140E-1,5.517000198E0,-3.136950254E0,1.588950038E0
5.884902840E-1,5.593950272E0,-2.995950222E0,1.695000052E0
5.909930540E-1,5.697000504E0,-3.007950068E0,1.824000120E0
5.934958240E-1,5.889000416E0,-3.025050163E0,2.001000166E0
5.959985160E-1,6.151950359E0,-3.112950087E0,2.260050058E0
5.985012840E-1,6.322050095E0,-3.268950224E0,2.530950069E0
6.010040530E-1,6.456000328E0,-3.367050171E0,2.739000082E0
6.035068220E-1,6.565950394E0,-3.492000103E0,2.964000225E0
6.060095910E-1,6.657000542E0,-3.600000143E0,3.204000235E0
6.085123610E-1,6.664950371E0,-3.705000162E0,3.421950102E0
6.110151250E-1,6.676950455E0,-3.817050219E0,3.685050249E0
6.135176650E-1,6.661950111E0,-3.930000305E0,3.970050097E0
6.160206780E-1,6.595050335E0,-3.991950274E0,4.219050407E0
6.185232190E-1,6.589950085E0,-4.069050312E0,4.497000217E0
6.210259860E-1,6.400950432E0,-4.107000351E0,4.777050018E0
6.235287690E-1,6.400950432E0,-4.252950191E0,4.986000061E0
6.260315380E-1,6.526050091E0,-4.394999981E0,5.140950203E0
6.285342940E-1,6.568950176E0,-4.555050373E0,5.308950424E0
6.310369880E-1,6.541950226E0,-4.656000137E0,5.395050049E0
6.335398320E-1,6.523050308E0,-4.768050194E0,5.368950367E0
6.360426030E-1,6.490050316E0,-4.840050220E0,5.328000069E0
6.385452960E-1,6.312000275E0,-4.857000351E0,5.271000385E0
6.410480630E-1,6.271950245E0,-4.857000351E0,5.188950062E0
6.435508320E-1,6.483000278E0,-4.914000034E0,5.074050426E0
6.460536010E-1,6.673950195E0,-4.902000427E0,4.950000286E0
6.485563710E-1,6.906000137E0,-4.897950172E0,4.753050327E0
6.510591400E-1,7.110000134E0,-5.001000404E0,4.497000217E0
6.535619090E-1,7.266000271E0,-5.146950245E0,4.312950134E0
6.560644450E-1,7.447950363E0,-5.257050037E0,4.090050220E0
6.585672120E-1,7.623000145E0,-5.286000252E0,3.898050070E0
6.610699810E-1,7.801950455E0,-5.347950459E0,3.762000084E0
6.635727600E-1,8.065950394E0,-5.383950233E0,3.618000269E0
6.660755300E-1,8.334000587E0,-5.386050224E0,3.460050106E0
6.685782990E-1,8.596950531E0,-5.416950226E0,3.340050220E0
6.710810730E-1,8.863050461E0,-5.482050419E0,3.264000177E0
6.735837670E-1,9.244050026E0,-5.458050251E0,3.253950119E0
6.760866120E-1,9.591000557E0,-5.527950287E0,3.259050131E0
6.785894210E-1,9.951000214E0,-5.544000149E0,3.289950132E0
6.810921900E-1,1.023795033E1,-5.620950222E0,3.394950151E0
6.835948820E-1,1.053705025E1,-5.628000259E0,3.502950191E0
6.860976500E-1,1.081500053E1,-5.556000233E0,3.654000282E0
6.886004190E-1,1.098495007E1,-5.560950279E0,3.870000124E0
6.911031880E-1,1.097295094E1,-5.530050278E0,4.054049969E0
6.936059570E-1,1.115295029E1,-5.566050053E0,4.188000202E0
6.961087260E-1,1.143795013E1,-5.629950047E0,4.387050152E0
6.986112670E-1,1.165095043E1,-5.619000435E0,4.641000271E0
7.011140340E-1,1.175595093E1,-5.700000286E0,4.939950466E0
7.036168080E-1,1.188300037E1,-5.772000313E0,5.119950294E0
7.061198080E-1,1.180395031E1,-5.712000370E0,5.275050163E0
7.086223490E-1,1.173495102E1,-5.659050465E0,5.338050365E0
7.111251250E-1,1.213995075E1,-5.803050041E0,5.389950275E0
7.136278940E-1,1.249395084E1,-5.841000080E0,5.524050236E0
7.161306640E-1,1.270500088E1,-5.803050041E0,5.710950375E0
7.186334330E-1,1.287195015E1,-5.809950352E0,5.718000412E0
7.211361270E-1,1.302795029E1,-5.776950359E0,5.685000420E0
7.236389710E-1,1.302300072E1,-5.662050247E0,5.556000233E0
7.261416760E-1,1.288005066E1,-5.524950027E0,5.248950481E0
7.286444430E-1,1.314495087E1,-5.599050045E0,4.870950222E0
7.311472120E-1,1.335900021E1,-5.652000427E0,4.638000011E0
7.336499990E-1,1.342995071E1,-5.656950474E0,4.461000443E0
7.361527690E-1,1.358100033E1,-5.683050156E0,4.200000286E0
7.386555380E-1,1.374705029E1,-5.736000061E0,3.883950233E0
7.411583070E-1,1.387605095E1,-5.760000229E0,3.630000114E0
7.436608480E-1,1.393095112E1,-5.785950184E0,3.430950165E0
7.461636150E-1,1.404600048E1,-5.784000397E0,3.283050060E0
7.486663840E-1,1.416300106E1,-5.785950184E0,3.094050169E0
7.511691530E-1,1.428795052E1,-5.767050266E0,2.896950245E0
7.536719220E-1,1.441995049E1,-5.764950275E0,2.707950115E0
7.561746920E-1,1.459395027E1,-5.722050190E0,2.571000099E0
7.586774610E-1,1.468995094E1,-5.707050323E0,2.491950035E0
7.611802300E-1,1.480800056E1,-5.779050350E0,2.452050209E0
7.636829990E-1,1.492995071E1,-5.785950184E0,2.440050125E0
7.661857690E-1,1.501800060E1,-5.808000088E0,2.502000093E0
7.686885540E-1,1.512105083E1,-5.812950134E0,2.547000170E0
7.711912470E-1,1.525095081E1,-5.812950134E0,2.598000050E0
7.736940090E-1,1.542795086E1,-5.844000340E0,2.730000019E0
7.761967790E-1,1.556895065E1,-5.848050117E0,2.851950169E0
7.786995480E-1,1.578000069E1,-5.880000114E0,3.145950079E0
7.812023170E-1,1.582605076E1,-5.896050453E0,3.450000048E0
7.837050860E-1,1.564305115E1,-5.857950211E0,3.655950069E0
7.862078560E-1,1.572300053E1,-5.913000107E0,3.850050211E0
7.887103960E-1,1.612200165E1,-6.001950264E0,4.015950203E0
7.912131630E-1,1.675695038E1,-6.289050102E0,4.249950409E0
7.937159330E-1,1.741305161E1,-6.562050343E0,4.345950127E0
7.962187020E-1,1.773900032E1,-6.486000538E0,4.432050228E0
7.987214380E-1,1.776795006E1,-6.250950336E0,4.522950172E0
8.012242070E-1,1.769400024E1,-5.929950237E0,4.495050430E0
8.037269760E-1,1.760505104E1,-5.587050438E0,4.447050095E0
8.062297550E-1,1.758105087E1,-5.422050476E0,4.312950134E0
8.087324490E-1,1.763100052E1,-5.401050091E0,4.047000408E0
8.112352790E-1,1.773405075E1,-5.398050308E0,3.706950188E0
8.137380500E-1,1.778205109E1,-5.467950344E0,3.292050123E0
8.162407430E-1,1.783500099E1,-5.539050102E0,2.844000101E0
8.187435100E-1,1.788000107E1,-5.535000324E0,2.241000175E0
8.212462790E-1,1.788795090E1,-5.548950195E0,1.707000136E0
8.237490480E-1,1.795695114E1,-5.479950428E0,1.134000063E0
8.262518180E-1,1.795499992E1,-5.347950459E0,5.640000105E-1
8.287545870E-1,1.792605019E1,-5.223000050E0,-9.000000544E-3
8.312573560E-1,1.791600037E1,-5.080050468E0,-5.119500160E-1
8.337599020E-1,1.794300079E1,-4.957050323E0,-9.720000625E-1
8.362626690E-1,1.799100113E1,-4.843050003E0,-1.405950069E0
8.387654380E-1,1.799805069E1,-4.753950119E0,-1.794000030E0
8.412681970E-1,1.808400154E1,-4.692000389E0,-2.110050201E0
8.437709670E-1,1.813199997E1,-4.615050316E0,-2.376000166E0
8.462737360E-1,1.815600014E1,-4.549950123E0,-2.533950090E0
8.487765050E-1,1.818195152E1,-4.431000233E0,-2.650950193E0
8.512792740E-1,1.818900108E1,-4.411050320E0,-2.958000183E0
8.537820390E-1,1.830000114E1,-4.308000088E0,-4.023000240E0
8.562847330E-1,1.832595062E1,-4.157999992E0,-4.323000431E0
8.587875770E-1,1.819200134E1,-4.110000134E0,-4.170000076E0
8.612903480E-1,1.810095024E1,-4.030950069E0,-3.796050072E0
8.637930410E-1,1.798095131E1,-3.894000292E0,-3.352950096E0
8.662958080E-1,1.776105118E1,-3.877050161E0,-2.878950119E0
8.687985770E-1,1.759305000E1,-3.906000137E0,-2.440050125E0
8.713013460E-1,1.733400154E1,-3.999000072E0,-1.897050142E0
8.738041160E-1,1.711605072E1,-4.087950230E0,-1.195050001E0
8.763068850E-1,1.702799988E1,-4.102050304E0,-3.949500322E-1
8.788096490E-1,1.697504997E1,-4.075950146E0,-7.050000131E-3
8.813124180E-1,1.684605026E1,-4.117050171E0,3.299999982E-2
8.838149590E-1,1.672800064E1,-4.087950230E0,1.500000060E-1
8.863177120E-1,1.659900093E1,-4.078950405E0,2.550000250E-1
8.888204810E-1,1.653404999E1,-4.009050369E0,2.509500086E-1
8.913232500E-1,1.654605103E1,-4.023000240E0,2.340000123E-1
8.938260150E-1,1.662300110E1,-3.999000072E0,9.300000221E-2
8.963287790E-1,1.665405083E1,-3.967950106E0,-8.805000782E-2
8.988315480E-1,1.664895058E1,-3.892050266E0,-1.819500029E-1
9.013343170E-1,1.657005119E1,-3.817050219E0,-2.779500186E-1
9.038370630E-1,1.640505028E1,-3.676050186E0,-3.570000231E-1
9.063398330E-1,1.625699997E1,-3.496950150E0,-3.829500079E-1
9.088426030E-1,1.606305122E1,-3.376950264E0,-4.879500270E-1
9.113452950E-1,1.595700073E1,-3.154050112E0,-6.060000062E-1
9.138480630E-1,1.592805099E1,-3.034050226E0,-7.470000386E-1
9.163508320E-1,1.593795109E1,-2.914950132E0,-9.510000348E-1
9.188536010E-1,1.598595047E1,-2.821050167E0,-1.161000013E0
9.213563700E-1,1.604295158E1,-2.725050211E0,-1.357950091E0
9.238591400E-1,1.609905052E1,-2.572050095E0,-1.566000104E0
9.263619090E-1,1.617794991E1,-2.488050222E0,-1.722000122E0
9.288646780E-1,1.628805161E1,-2.364000082E0,-1.945050120E0
9.313674470E-1,1.644105148E1,-2.287050009E0,-2.230050087E0
9.338699880E-1,1.656795120E1,-2.179050207E0,-2.613000154E0
9.363729860E-1,1.671195030E1,-2.078999996E0,-2.934000254E0
9.388757570E-1,1.684800148E1,-1.959000111E0,-3.300000191E0
9.413782950E-1,1.707600021E1,-1.867950082E0,-3.777000189E0
9.438810630E-1,1.721895027E1,-1.714950085E0,-4.204950333E0
9.463838370E-1,1.740900040E1,-1.602000117E0,-4.617000103E0
9.488866060E-1,1.758600044E1,-1.486950040E0,-4.993050098E0
9.513893750E-1,1.778700066E1,-1.360050082E0,-5.377050400E0
9.538921210E-1,1.783500099E1,-1.281000018E0,-5.602050304E0
9.563948950E-1,1.768200111E1,-1.324050069E0,-6.105000496E0
9.588976640E-1,1.692495155E1,-1.389000058E0,-7.783950329E0
9.614003580E-1,1.574595070E1,-1.462950110E0,-9.961050034E0
9.639031260E-1,1.446795082E1,-1.606950045E0,-1.242300034E1
9.664058950E-1,1.305000019E1,-1.825050116E0,-1.424505043E1
9.689086640E-1,1.168695068E1,-2.098050117E0,-1.542900085E1
9.714114330E-1,1.059195042E1,-2.530950069E0,-1.599600029E1
9.739142030E-1,9.826050758E0,-3.031950235E0,-1.606995010E1
9.764169720E-1,9.091050148E0,-3.492000103E0,-1.593900108E1
9.789197410E-1,5.623050213E0,-3.553950071E0,-1.445100021E1
9.814222910E-1,6.046950340E0,-3.834000111E0,-1.388595104E1
9.839252890E-1,7.479000568E0,-4.371000290E0,-1.333305073E1
9.864280600E-1,6.628950119E0,-4.444950104E0,-1.140495014E1
9.889308480E-1,6.451050282E0,-4.402050018E0,-9.834000587E0
9.914333860E-1,6.271950245E0,-4.287000179E0,-8.466000557E0
9.939361540E-1,6.388950348E0,-4.009050369E0,-7.222950459E0
9.964389230E-1,6.906000137E0,-3.913050175E0,-6.021000385E0
9.989416920E-1,7.576950550E0,-3.856050253E0,-5.020050049E0
1.001444461E0,7.993950367E0,-3.673950195E0,-3.964050293E0
1.003947236E0,8.398950577E0,-3.553950071E0,-3.115950108E0
1.006450005E0,8.947050095E0,-3.529950142E0,-2.530950069E0
1.008952774E0,9.109950066E0,-3.484950066E0,-2.110050201E0
1.011455468E0,9.043050766E0,-3.412950277E0,-1.789050102E0
1.013958236E0,8.794050217E0,-3.475050211E0,-1.815000057E0
1.016461005E0,8.197050095E0,-3.349950075E0,-1.818000078E0
1.018963774E0,8.233050346E0,-3.516000271E0,-1.798050046E0
1.021466543E0,8.470050812E0,-3.621000290E0,-1.698000073E0
1.023969313E0,8.353050232E0,-3.516000271E0,-1.321950078E0
1.026472072E0,7.849950314E0,-3.516000271E0,-5.719500184E-1
1.028974841E0,7.006950378E0,-3.724050283E0,2.509500086E-1
1.031477610E0,6.418050289E0,-3.931950092E0,5.640000105E-1
1.033980366E0,5.569950104E0,-4.057050228E0,8.280000687E-1
1.036483150E0,4.465950012E0,-4.210050106E0,5.550000072E-1
1.038985920E0,4.336950302E0,-4.282050133E0,-6.919500232E-1
1.041488459E0,5.551050186E0,-4.282050133E0,-2.260950089E0
1.043991226E0,8.334000587E0,-3.822000265E0,-2.974050045E0
1.046493995E0,1.072200012E1,-3.316950083E0,-2.313000202E0
1.048996764E0,1.173000050E1,-2.971950054E0,-1.867950082E0
1.051499533E0,1.301895046E1,-2.608050108E0,-1.722000122E0
1.054002303E0,1.389795113E1,-2.244000196E0,-7.639500499E-1
1.056505072E0,1.291800022E1,-2.260950089E0,-9.600000381E-1
1.059007841E0,1.192905045E1,-2.457000017E0,-1.660050035E0
1.061510610E0,1.158900070E1,-2.610000134E0,-1.723950028E0
1.064013376E0,1.150995064E1,-2.650950193E0,-1.678950071E0
1.066516146E0,1.154595089E1,-2.658000231E0,-1.552050114E0
1.069018916E0,1.152405071E1,-2.713050127E0,-1.140000105E0
1.071521689E0,1.150200081E1,-2.895000219E0,-3.970500231E-1
1.074024382E0,1.144500065E1,-3.031950235E0,5.700000376E-2
1.076527154E0,1.128000069E1,-3.063000202E0,5.239500403E-1
1.079029923E0,1.095600033E1,-2.887950182E0,7.969500422E-1
1.081532692E0,1.052295017E1,-2.767950058E0,1.075049996E0
1.084035462E0,1.020900059E1,-2.874000072E0,1.491000056E0
1.086538207E0,1.038600063E1,-2.935950041E0,2.377050161E0
1.089040976E0,1.095405006E1,-3.075000048E0,4.027950287E0
1.091543745E0,1.126500034E1,-3.166050196E0,5.232000351E0
1.094046276E0,9.892950058E0,-3.373950243E0,5.095950127E0
1.096549043E0,8.647950172E0,-3.493950129E0,3.649050236E0
1.099051812E0,8.266950607E0,-3.292950153E0,3.370950222E0
1.101554812E0,8.239950180E0,-2.821050167E0,3.163050175E0
1.104057353E0,8.820000648E0,-2.269950151E0,3.160950184E0
1.106560120E0,9.169950485E0,-1.923000097E0,4.267050266E0
1.109062889E0,9.097949982E0,-1.918050051E0,4.449000359E0
1.111565658E0,9.109950066E0,-2.151000023E0,3.688050270E0
1.114068428E0,8.763000488E0,-2.377950191E0,2.542950153E0
1.116571197E0,7.768950462E0,-2.281949997E0,1.218000054E0
1.119073966E0,8.323950768E0,-2.115000010E0,1.357050061E0
1.121576774E0,9.514950752E0,-1.915950060E0,9.790500402E-1
1.124079544E0,9.507000923E0,-1.810050130E0,1.210950017E0
1.126582238E0,8.617050171E0,-1.771950126E0,8.110500574E-1
1.129085005E0,7.948050499E0,-1.765050054E0,-1.480500102E-1
1.131587774E0,7.464000225E0,-1.918050051E0,-1.549500078E-1
1.134090544E0,6.703050137E0,-2.313000202E0,-1.395000052E-2
1.136593294E0,6.115950108E0,-2.613000154E0,-1.000500023E-1
1.139096063E0,5.589000225E0,-2.766000032E0,-5.550000072E-1
1.141598832E0,4.701000214E0,-2.827950239E0,-8.599500656E-1
1.144101602E0,4.176000118E0,-2.922000170E0,-4.410000145E-1
1.146604372E0,4.012950420E0,-3.231000185E0,7.579500079E-1
1.149107142E0,4.072950363E0,-3.729000092E0,1.257000089E0
1.151609681E0,4.267050266E0,-4.051949978E0,1.864950061E0
1.154112679E0,4.328999996E0,-4.051949978E0,2.350950003E0
1.156615450E0,4.581000328E0,-3.934950113E0,2.313000202E0
1.159118219E0,4.713000298E0,-3.907950163E0,1.747950077E0
1.161620758E0,4.867950439E0,-4.162050247E0,1.285050035E0
1.164123525E0,5.484000206E0,-4.038000107E0,6.580500603E-1
1.166626293E0,5.515050411E0,-3.493950129E0,2.820000052E-1
1.169129062E0,4.328999996E0,-2.610000134E0,-4.879500270E-1
1.171631831E0,4.423050404E0,-2.581950188E0,-6.820500493E-1
1.174134635E0,4.567049980E0,-2.653050184E0,-5.749500394E-1
1.176637404E0,4.621950150E0,-2.512050152E0,-8.980500698E-1
1.179140173E0,4.842000008E0,-2.476050138E0,-1.369950056E0
1.181642952E0,4.510950089E0,-2.220000029E0,-1.630950093E0
1.184145722E0,4.497000217E0,-1.987950087E0,-1.878000140E0
1.186648411E0,4.974000454E0,-1.888950109E0,-1.710000038E0
1.189151255E0,5.152950287E0,-1.645050049E0,-1.747950077E0
1.191654026E0,5.151000023E0,-1.180950046E0,-1.755000114E0
1.194156719E0,4.918950081E0,-7.849500179E-1,-1.983000040E0
1.196659486E0,4.813050270E0,-3.780000210E-1,-2.323050022E0
1.199162255E0,5.116950035E0,-3.490500152E-1,-2.677050114E0
1.201665024E0,5.794950485E0,-5.599500537E-1,-2.977050066E0
1.204167794E0,6.186000347E0,-7.140000463E-1,-3.099000216E0
1.206670563E0,6.310050488E0,-4.189500213E-1,-3.585000277E0
1.209173332E0,6.817950249E0,-1.870500147E-1,-4.095000267E0
1.211676101E0,7.534050465E0,2.719500065E-1,-4.282050133E0
1.214178856E0,8.334000587E0,1.399950027E0,-4.483050346E0
1.216681396E0,8.430000305E0,9.930000305E-1,-3.778950214E0
1.219184163E0,9.016050339E0,-1.000500023E-1,-2.428050041E0
1.221686937E0,9.201000214E0,-4.999500215E-1,-8.400000334E-1
1.224189707E0,8.830050468E0,-4.840500355E-1,2.359500080E-1
1.226692707E0,8.451000214E0,-3.829500079E-1,1.209000111E0
1.229195247E0,7.864050388E0,-3.139500022E-1,1.269000053E0
1.231698014E0,7.267950535E0,-2.730000019E-1,9.280500412E-1
1.234200784E0,6.871050358E0,-1.650000066E-1,7.270500064E-1
1.236703553E0,6.616950512E0,-7.050000131E-3,2.310000062E-1
1.239206322E0,6.526050091E0,1.800000109E-2,-5.100000501E-1
1.241709091E0,6.625950336E0,-1.360500008E-1,-7.420500517E-1
1.244211861E0,6.700050354E0,-6.405000389E-2,-1.096950054E0
1.246714640E0,6.817950249E0,1.380000114E-1,-1.372050047E0
1.249217334E0,7.198950291E0,3.370500207E-1,-1.489950061E0
1.251720101E0,7.623000145E0,4.950000346E-1,-1.558950067E0
1.254222871E0,7.932000160E0,7.009500265E-1,-1.600050092E0
1.256725635E0,8.233050346E0,7.200000286E-1,-1.594950080E0
1.259228404E0,8.833950043E0,6.000000238E-1,-1.437000036E0
1.261731197E0,8.812950134E0,6.580500603E-1,-1.252050042E0
1.264233967E0,8.868000031E0,7.129500508E-1,-1.336050034E0
1.266736737E0,9.106950760E0,7.969500422E-1,-1.441950083E0
1.269239507E0,9.096000671E0,8.929500580E-1,-8.640000224E-1
1.271742276E0,9.273000717E0,7.819500566E-1,-9.030000567E-1
1.274245040E0,9.414000511E0,6.769500375E-1,-1.345950007E0
1.276747579E0,9.424050331E0,5.929500461E-1,-9.940500259E-1
1.279250346E0,9.498000145E0,5.719500184E-1,-6.850500107E-1
1.281753115E0,9.418950081E0,4.399500191E-1,-3.640500307E-1
1.284255885E0,9.142950058E0,4.180500209E-1,2.770500183E-1
1.286758654E0,9.129000664E0,1.690500081E-1,4.710000157E-1
1.289261423E0,9.000000000E0,7.800000161E-2,1.036050081E0
1.291764192E0,9.097949982E0,1.260000020E-1,1.455000043E0
1.294266962E0,9.745050430E0,-1.819500029E-1,1.752000093E0
1.296769732E0,1.050105095E1,-3.229500055E-1,2.224050045E0
1.299272493E0,1.156695080E1,-5.310000181E-1,2.446950197E0
1.301775262E0,1.207500076E1,-4.930500090E-1,2.868000031E0
1.304278055E0,1.251600075E1,-2.920500040E-1,2.998050213E0
1.306780824E0,1.296105099E1,-2.269500047E-1,2.938050032E0
1.309283517E0,1.309995079E1,-7.605000585E-2,2.770050049E0
1.311786298E0,1.362900066E1,-2.869500220E-1,1.920000076E0
1.314289082E0,1.383795071E1,-3.709500134E-1,6.360000372E-1
1.316791851E0,1.409595108E1,-6.180000305E-1,1.309500039E-1
1.319294620E0,1.426605034E1,-1.003050089E0,-2.989500165E-1
1.321797389E0,1.432905102E1,-1.219050050E0,1.170000076E0
1.324300159E0,1.391400051E1,-1.339050055E0,-2.899500132E-1
1.326802929E0,1.353105068E1,-1.603950024E0,-8.089500666E-1
1.329305699E0,1.266600037E1,-1.783950090E0,-5.220000148E-1
1.331808468E0,1.207500076E1,-2.050050020E0,-6.370500326E-1
1.334311237E0,1.146705055E1,-2.359050035E0,-9.169500470E-1
1.336814006E0,1.052100086E1,-2.560050011E0,-9.670500755E-1
1.339316775E0,9.651000023E0,-2.883000135E0,-1.164000034E0
1.341819524E0,9.394950867E0,-3.292950153E0,-1.072950006E0
1.344322293E0,9.316050529E0,-3.597000122E0,-5.790000558E-1
1.346825062E0,9.105000496E0,-3.918000221E0,-9.300000221E-2
1.349327583E0,8.299950600E0,-4.085999966E0,6.120000482E-1
1.351830350E0,7.587000370E0,-4.134000301E0,7.609500289E-1
1.354333134E0,6.973950386E0,-4.308000088E0,9.499500394E-1
1.356835903E0,6.183000088E0,-4.522050381E0,1.756950140E0
1.359338687E0,5.577000141E0,-4.741950035E0,2.205000162E0
1.361841456E0,5.401950359E0,-4.972050190E0,2.935050249E0
1.364344226E0,4.969050407E0,-5.269050121E0,3.433950186E0
1.366846995E0,4.818000317E0,-5.776950359E0,3.646950245E0
1.369349764E0,4.602000237E0,-6.129000187E0,3.628050089E0
1.371852533E0,3.916950226E0,-6.112050056E0,4.870950222E0
1.374355303E0,3.382950068E0,-6.025950432E0,5.244000435E0
1.376857997E0,2.943000078E0,-6.130950451E0,5.587050438E0
1.379360841E0,2.047049999E0,-6.130950451E0,5.647050381E0
1.381863612E0,8.689500690E-1,-5.881950378E0,5.044950008E0
1.384366324E0,-7.450500131E-1,-5.535000324E0,2.185950041E0
1.386869091E0,7.579500079E-1,-7.159050465E0,-8.910000324E-1
1.389371860E0,1.912950039E0,-7.800000191E0,-6.405000389E-2
1.391874629E0,1.992000103E0,-7.684950352E0,8.089500666E-1
1.394377423E0,2.272050142E0,-7.390950203E0,9.120000601E-1
1.396880192E0,2.884950161E0,-6.459000111E0,1.036050081E0
1.399382951E0,3.415050268E0,-5.323950291E0,1.012050033E0
1.401885720E0,3.237000227E0,-5.986950397E0,1.453050017E0
1.404388489E0,2.791950226E0,-7.360050201E0,2.442000151E0
1.406891269E0,2.836950064E0,-8.896950722E0,3.313950062E0
1.409393809E0,2.689050198E0,-1.020300007E1,3.874050140E0
1.411896576E0,2.539950132E0,-1.110105038E1,4.162050247E0
1.414399346E0,2.559000015E0,-1.213095093E1,4.963950157E0
1.416902346E0,2.539950132E0,-1.306005096E1,5.757000446E0
1.419404886E0,2.440050125E0,-1.343805027E1,6.411000252E0
1.421907653E0,1.434000015E0,-1.331895065E1,5.947950363E0
1.424410423E0,-5.290500522E-1,-1.282800102E1,3.619950056E0
1.426913192E0,-1.219050050E0,-1.288500023E1,3.505050182E0
1.429415961E0,1.120500043E-1,-1.321995068E1,4.573950291E0
1.431918730E0,2.980950117E0,-1.331400108E1,5.818950176E0
1.434421500E0,4.075950146E0,-1.298805046E1,5.962950230E0
1.436924283E0,4.510950089E0,-1.286100101E1,4.963950157E0
1.439427052E0,5.601000309E0,-1.279200077E1,4.681050301E0
1.441929821E0,6.607050419E0,-1.281300068E1,4.267050266E0
1.444432585E0,7.468950272E0,-1.289895058E1,3.834000111E0
1.446935355E0,8.105999947E0,-1.292100048E1,3.558000088E0
1.449438125E0,8.566050529E0,-1.291095066E1,3.124950171E0
1.451940895E0,8.854050636E0,-1.268895054E1,2.871000051E0
1.454443588E0,8.667000771E0,-1.214700031E1,2.737050056E0
1.456946365E0,8.343000412E0,-1.152495098E1,2.587950230E0
1.459449134E0,7.831050396E0,-1.072695065E1,2.509050131E0
1.461951903E0,7.315950394E0,-9.862050056E0,2.301000118E0
1.464454657E0,7.359000206E0,-9.361950874E0,1.836000085E0
1.466957427E0,7.717950344E0,-8.635950089E0,1.446000099E0
1.469460196E0,8.347949982E0,-7.804950237E0,9.720000625E-1
1.471962965E0,9.141000748E0,-7.441050529E0,8.470500112E-1
1.474465734E0,9.358950615E0,-7.360050201E0,1.182000041E0
1.476968504E0,9.442950249E0,-7.197000504E0,1.525050044E0
1.479471274E0,9.349050522E0,-6.960000515E0,1.611000061E0
1.481974044E0,9.634050369E0,-6.648000240E0,1.692000031E0
1.484476813E0,9.828000069E0,-6.235950470E0,1.657050133E0
1.486979582E0,9.780000687E0,-5.800950050E0,1.453050017E0
1.489482337E0,9.802050591E0,-5.395950317E0,1.122000098E0
1.491984876E0,9.828000069E0,-4.906949997E0,8.470500112E-1
1.494487644E0,9.601050377E0,-4.320000172E0,2.050500065E-1
1.496990398E0,9.397050858E0,-3.882000208E0,-6.420000196E-1
1.499493398E0,9.064050674E0,-3.736050129E0,-1.081950068E0
1.501995938E0,8.710050583E0,-4.078950405E0,-1.534950018E0
1.504498936E0,7.984050274E0,-5.059950352E0,-9.750000238E-1
1.507001512E0,7.411950588E0,-5.647050381E0,-1.923000097E0
1.509504279E0,7.306050301E0,-6.201000214E0,-2.802000046E0
1.512007038E0,7.213050365E0,-6.493050098E0,-3.259050131E0
1.514509807E0,7.266000271E0,-6.841950417E0,-3.741000175E0
1.517012577E0,7.740000248E0,-7.270950317E0,-3.753000259E0
1.519515332E0,7.807050228E0,-7.426950455E0,-3.658950090E0
1.522018101E0,7.939050198E0,-7.531950474E0,-3.271050215E0
1.524520870E0,8.272050858E0,-7.671000481E0,-2.874000072E0
1.527023640E0,8.466000557E0,-7.681050301E0,-2.419050217E0
1.529526410E0,8.410950661E0,-7.578000546E0,-1.918050051E0
1.532029180E0,8.326950073E0,-7.333050251E0,-1.597050071E0
1.534531872E0,8.983050346E0,-7.422000408E0,-1.213950038E0
1.537034717E0,1.056405067E1,-7.491000175E0,-9.480000734E-1
1.539537411E0,1.177995014E1,-7.666050434E0,-5.839500427E-1
1.542040255E0,1.228800011E1,-8.068950653E0,4.369500279E-1
1.544543031E0,1.205595016E1,-8.770050049E0,2.344050169E0
1.547045801E0,1.150500011E1,-9.229950905E0,3.886050224E0
1.549548493E0,1.102095032E1,-9.582000732E0,5.056950092E0
1.552051260E0,1.016100025E1,-9.781050682E0,5.728050232E0
1.554554009E0,8.932950020E0,-9.795000076E0,5.746950150E0
1.557056779E0,7.728000164E0,-9.661050797E0,5.668050289E0
1.559559548E0,6.813000202E0,-9.817050934E0,5.635050297E0
1.562062298E0,6.379950523E0,-1.021005058E1,5.626950264E0
1.564565067E0,6.412950516E0,-1.074900055E1,5.392950058E0
1.567067836E0,6.540000439E0,-1.105500031E1,4.882950306E0
1.569570616E0,6.484950542E0,-1.100295067E1,4.201950073E0
1.572073386E0,6.231000423E0,-1.061895084E1,3.510000229E0
1.574576117E0,5.829000473E0,-1.012605095E1,2.646000147E0
1.577078656E0,5.359050274E0,-9.730950356E0,1.651950121E0
1.579581654E0,4.570950031E0,-8.955000877E0,9.090000391E-1
1.582084194E0,3.393000126E0,-8.088000298E0,2.050500065E-1
1.584587192E0,3.028950214E0,-7.681050301E0,1.351950049E0
1.587089963E0,2.227050066E0,-7.189950466E0,1.764000058E0
1.589592733E0,1.692000031E0,-6.933000565E0,2.188050032E0
1.592095502E0,1.477050066E0,-6.700950146E0,2.310000181E0
1.594598040E0,1.269000053E0,-6.415950298E0,2.521050215E0
1.597100808E0,9.019500613E-1,-5.998950481E0,2.473050117E0
1.599603611E0,2.629500031E-1,-5.389050484E0,2.623950243E0
1.602106380E0,-4.519500136E-1,-4.843050003E0,2.575950146E0
1.604609144E0,-1.297950029E0,-4.258049965E0,2.679000139E0
1.607111913E0,-2.119050026E0,-3.796050072E0,2.727000237E0
1.609614683E0,-1.842000127E0,-4.396950245E0,1.788000107E0
1.612117471E0,-1.413000107E0,-4.878000259E0,3.498000145E0
1.614620240E0,-1.759950042E0,-4.273050308E0,3.927000284E0
1.617123009E0,-1.843950033E0,-3.919950247E0,3.048000097E0
1.619625779E0,-1.609050035E0,-4.042950153E0,2.677050114E0
1.622128549E0,-1.209000111E0,-4.155000210E0,3.192000151E0
1.624631242E0,-9.390000701E-1,-4.243950367E0,3.502950191E0
1.627134072E0,-5.200500488E-1,-4.267950058E0,3.733050108E0
1.629636767E0,-5.700000376E-2,-4.251000404E0,4.060950279E0
1.632139616E0,2.629500031E-1,-4.287000179E0,4.444050312E0
1.634642387E0,4.590000212E-1,-4.264950275E0,4.770000458E0
1.637145156E0,6.889500618E-1,-4.225049973E0,5.268000126E0
1.639647926E0,9.019500613E-1,-4.237050056E0,5.686950207E0
1.642150618E0,1.039050102E0,-4.306050301E0,5.754000187E0
1.644653385E0,1.042950034E0,-4.360949993E0,5.818950176E0
1.647156154E0,1.101000071E0,-4.552950382E0,6.114000320E0
1.649658924E0,1.165950060E0,-4.633950233E0,6.436950207E0
1.652161693E0,1.429050088E0,-4.708050251E0,6.520950317E0
1.654664462E0,1.669050097E0,-4.897950172E0,6.379950523E0
1.657167231E0,1.966050148E0,-5.179950237E0,6.111000061E0
1.659669996E0,2.293950081E0,-5.719050407E0,5.932050228E0
1.662172766E0,2.373000145E0,-6.559950352E0,5.749950409E0
1.664675536E0,2.674050093E0,-7.687950134E0,5.401950359E0
1.667178193E0,3.321000099E0,-8.907000542E0,5.809050083E0
1.669680962E0,4.066050053E0,-1.018605042E1,5.605950356E0
1.672183516E0,4.702950001E0,-1.167300034E1,4.392000198E0
1.674686514E0,5.283000469E0,-1.320105076E1,4.222050190E0
1.677189285E0,5.299050331E0,-1.460205078E1,4.396049976E0
1.679692054E0,4.906949997E0,-1.577295113E1,4.255050182E0
1.682194824E0,4.156949997E0,-1.708095169E1,4.080000401E0
1.684697593E0,2.706000090E0,-1.844895172E1,3.963000298E0
1.687200362E0,1.615950108E0,-2.002500153E1,4.200000286E0
1.689702901E0,8.449500203E-1,-2.147595024E1,4.296000004E0
1.692205668E0,7.200000286E-1,-2.234505081E1,4.581000328E0
1.694708437E0,-3.469500244E-1,-2.329095078E1,4.054049969E0
1.697211206E0,-2.830950022E0,-2.487705040E1,3.793050289E0
1.699713976E0,-3.669000149E0,-2.576805115E1,3.658950090E0
1.702216745E0,-4.216950417E0,-2.633295059E1,3.607950211E0
1.704719745E0,-4.900050163E0,-2.693205070E1,3.999000072E0
1.707222270E0,-5.935050488E0,-2.734095192E1,4.246050358E0
1.709725038E0,-6.427950382E0,-2.726700211E1,4.255050182E0
1.712227807E0,-5.832000256E0,-2.661795044E1,3.814050198E0
1.714730576E0,-6.136050224E0,-2.627805138E1,2.986050129E0
1.717233360E0,-6.034950256E0,-2.610600090E1,2.514000177E0
1.719736129E0,-5.037000179E0,-2.532495117E1,1.683000088E0
1.722238923E0,-4.198050022E0,-2.429700089E1,5.089499950E-1
1.724741692E0,-3.573000193E0,-2.284800148E1,-1.819500029E-1
1.727244461E0,-2.995950222E0,-2.127705193E1,-1.318950057E0
1.729747230E0,-2.365950108E0,-1.965795135E1,-2.146050215E0
1.732250000E0,-1.843950033E0,-1.803705025E1,-2.797050238E0
1.734752794E0,-1.293000102E0,-1.650900078E1,-3.528000116E0
1.737255564E0,-9.940500259E-1,-1.505700111E1,-4.050000191E0
1.739758333E0,-8.880000710E-1,-1.368705082E1,-4.593000412E0
1.742261102E0,-8.620500565E-1,-1.242300034E1,-4.972050190E0
1.744763795E0,-9.409500360E-1,-1.123200035E1,-5.190000057E0
1.747266562E0,-9.240000248E-1,-1.024995041E1,-5.299950123E0
1.749769331E0,-8.569500446E-1,-9.361950874E0,-4.900050163E0
1.752272178E0,-8.160000443E-1,-8.626950264E0,-4.371000290E0
1.754774872E0,-8.740500212E-1,-7.975050449E0,-3.898950100E0
1.757277716E0,-8.719500303E-1,-7.438950539E0,-3.166050196E0
1.759780376E0,-6.799500585E-1,-6.883050442E0,-2.464050055E0
1.762283144E0,-5.959500074E-1,-6.529050350E0,-1.662000060E0
1.764785908E0,-7.540500164E-1,-6.259950161E0,-6.270000339E-1
1.767288677E0,-6.870000362E-1,-6.025950432E0,2.389500141E-1
1.769791446E0,-8.359500170E-1,-5.796000481E0,1.078950047E0
1.772294202E0,-9.670500755E-1,-5.662050247E0,1.921950102E0
1.774796971E0,-8.719500303E-1,-5.641950130E0,2.562000036E0
1.777299740E0,-5.700000525E-1,-5.719050407E0,3.085950136E0
1.779802528E0,-5.580000281E-1,-6.042000294E0,3.922050238E0
1.782305297E0,-2.539499998E-1,-6.490050316E0,4.486950397E0
1.784808067E0,-8.595000207E-2,-6.892950535E0,4.789050102E0
1.787310837E0,-3.520500064E-1,-7.408050537E0,5.007000446E0
1.789813607E0,-7.780500650E-1,-8.002050400E0,5.244000435E0
1.792316376E0,-1.438950062E0,-8.605050087E0,5.284950256E0
1.794819145E0,-2.185950041E0,-9.568050385E0,5.026050091E0
1.797321914E0,-3.202050209E0,-1.058805084E1,4.605000019E0
1.799824453E0,-5.307000160E0,-1.098795033E1,4.360949993E0
1.802327221E0,-7.852950573E0,-1.083495045E1,4.210050106E0
1.804830226E0,-1.015200043E1,-1.066695023E1,3.970050097E0
1.807332766E0,-1.218600082E1,-1.060995007E1,3.561000109E0
1.809835764E0,-1.370895100E1,-1.063395023E1,3.012000084E0
1.812338515E0,-1.477500057E1,-1.098795033E1,2.148000002E0
1.814841290E0,-1.515105057E1,-1.140000057E1,1.192050099E0
1.817344059E0,-1.483695030E1,-1.191000080E1,2.430000156E-1
1.819846597E0,-1.364700031E1,-1.236300087E1,-4.690500200E-1
1.822349364E0,-1.176900101E1,-1.250205040E1,-8.119500279E-1
1.824852134E0,-9.736050606E0,-1.224300098E1,-7.950000167E-1
1.827354903E0,-7.714050293E0,-1.192005062E1,-4.360500276E-1
1.829857672E0,-5.731050491E0,-1.165905094E1,9.300000221E-2
1.832360441E0,-4.009050369E0,-1.140495014E1,7.510500550E-1
1.834863211E0,-2.740050077E0,-1.117695045E1,1.288050056E0
1.837365980E0,-1.672050118E0,-1.104105091E1,1.828950047E0
1.839868735E0,-8.719500303E-1,-1.094295025E1,2.265000105E0
1.842371504E0,-3.280500174E-1,-1.092795086E1,2.571000099E0
1.844874274E0,4.050000105E-3,-1.093095016E1,2.775000095E0
1.847377150E0,2.670000196E-1,-1.098105049E1,2.824950218E0
1.849879920E0,5.500500202E-1,-1.104105091E1,2.863950253E0
1.852382689E0,4.810500145E-1,-1.098300076E1,2.848950148E0
1.854885444E0,9.120000601E-1,-1.111695099E1,2.703000069E0
1.857388213E0,1.198950052E0,-1.161600018E1,2.503950119E0
1.859890992E0,1.146000028E0,-1.186995029E1,2.430000067E0
1.862393761E0,1.369050026E0,-1.207095051E1,2.169000149E0
1.864896530E0,1.603950024E0,-1.230495071E1,1.972950101E0
1.867399318E0,1.819050074E0,-1.249200058E1,1.819050074E0
1.869902087E0,1.975050092E0,-1.254495049E1,1.671000123E0
1.872404856E0,2.265000105E0,-1.253295040E1,1.554000020E0
1.874907625E0,2.758050203E0,-1.304805088E1,1.467000127E0
1.877410395E0,2.497050047E0,-1.325400066E1,1.423950076E0
1.879913089E0,2.506950140E0,-1.337400055E1,1.303950071E0
1.882415856E0,2.503950119E0,-1.350495052E1,1.218000054E0
1.884918625E0,2.445000172E0,-1.357995033E1,1.233000040E0
1.887421395E0,2.325000048E0,-1.363200092E1,1.168050051E0
1.889924164E0,2.236050129E0,-1.356300068E1,1.024049997E0
1.892426933E0,1.957950115E0,-1.345500088E1,8.880000710E-1
1.894929769E0,1.519950032E0,-1.329195023E1,7.300500274E-1
1.897432464E0,1.081950068E0,-1.307400036E1,5.520000458E-1
1.899935236E0,5.500500202E-1,-1.283700085E1,3.250500262E-1
1.902438005E0,1.639500111E-1,-1.264605045E1,-1.950000064E-3
1.904940774E0,-2.130000144E-1,-1.247805023E1,-3.730500042E-1
1.907443544E0,-5.820000172E-1,-1.232895088E1,-6.850500107E-1
1.909946318E0,-9.600000381E-1,-1.216605091E1,-1.012950063E0
1.912449087E0,-1.297950029E0,-1.209000015E1,-1.345950007E0
1.914951860E0,-1.600050092E0,-1.198005104E1,-1.702950120E0
1.917454630E0,-1.827000141E0,-1.190100098E1,-2.016000032E0
1.919957400E0,-1.963950038E0,-1.188405037E1,-2.256000042E0
1.922460175E0,-2.052000046E0,-1.184805012E1,-2.485950232E0
1.924962944E0,-2.103000164E0,-1.179795074E1,-2.650950193E0
1.927465713E0,-2.103000164E0,-1.176705074E1,-2.758950233E0
1.929968482E0,-2.124000072E0,-1.174305058E1,-2.797050238E0
1.932471251E0,-2.092950106E0,-1.174005032E1,-2.746950150E0
1.934974020E0,-2.014050007E0,-1.177905083E1,-2.632050037E0
1.937476789E0,-1.906050086E0,-1.178805065E1,-2.515050173E0
1.939979563E0,-1.803000093E0,-1.187700081E1,-2.404050112E0
1.942482332E0,-1.695000052E0,-1.198905087E1,-2.332950115E0
1.944984872E0,-1.627950072E0,-1.208700085E1,-2.251049995E0
1.947487870E0,-1.549050093E0,-1.220205021E1,-2.163000107E0
1.949990661E0,-1.437000036E0,-1.231995106E1,-2.056950092E0
1.952493430E0,-1.345950007E0,-1.250895023E1,-2.050050020E0
1.954996199E0,-1.233000040E0,-1.267395020E1,-2.064000130E0
1.957498940E0,-1.175999999E0,-1.284405041E1,-2.086050034E0
1.960001710E0,-1.096950054E0,-1.299000072E1,-2.167050123E0
1.962504479E0,-9.700500369E-1,-1.308405018E1,-2.299050093E0
1.965007017E0,-8.740500212E-1,-1.311300087E1,-2.460000038E0
1.967509785E0,-7.690500617E-1,-1.316805077E1,-2.704050064E0
1.970012554E0,-6.130500436E-1,-1.314600086E1,-2.935950041E0
1.972515323E0,-4.450500309E-1,-1.309605026E1,-3.183000088E0
1.975018092E0,-2.800500095E-1,-1.299795055E1,-3.460950136E0
1.977521092E0,-1.720500141E-1,-1.290405083E1,-3.706950188E0
1.980023633E0,-1.240500063E-1,-1.284900093E1,-3.988050222E0
1.982526650E0,-1.170000061E-1,-1.264800072E1,-4.299000263E0
1.985029421E0,-6.705000252E-2,-1.256400013E1,-4.561950207E0
1.987531959E0,-4.500000179E-2,-1.255905056E1,-4.996050358E0
1.990034727E0,-2.400000021E-2,-1.255395031E1,-5.404950142E0
1.992537520E0,-7.395000011E-2,-1.257105064E1,-5.707050323E0
1.995040289E0,-2.110500038E-1,-1.256895065E1,-5.809950352E0
1.997543058E0,-4.600500166E-1,-1.259505081E1,-5.725950241E0
2.000045852E0,-6.510000229E-1,-1.259505081E1,-5.548950195E0
2.002548621E0,-8.500500321E-1,-1.259505081E1,-5.257050037E0
2.005051390E0,-1.125000000E0,-1.255395031E1,-4.878000259E0
2.007554145E0,-1.378950119E0,-1.255695057E1,-4.560000420E0
2.010057145E0,-1.533000112E0,-1.257405090E1,-4.210050106E0
2.012559686E0,-1.726950049E0,-1.266705036E1,-3.754950285E0
2.015062453E0,-1.980000138E0,-1.286595058E1,-3.184950113E0
2.017565222E0,-2.245950222E0,-1.308900070E1,-2.682000160E0
2.020067991E0,-2.373000145E0,-1.338300037E1,-2.407050133E0
2.022570761E0,-2.479050159E0,-1.363200092E1,-2.218050003E0
2.025073530E0,-2.833050251E0,-1.395795059E1,-1.954050064E0
2.027576299E0,-3.336000204E0,-1.409700108E1,-1.449000120E0
2.030079068E0,-3.565950155E0,-1.408500099E1,-1.366950035E0
2.032581837E0,-3.885000229E0,-1.414995098E1,-1.066050053E0
2.035084607E0,-4.498050213E0,-1.415895081E1,-3.520500064E-1
2.037587377E0,-5.122950077E0,-1.415205097E1,4.140000343E-1
2.040090146E0,-5.563050270E0,-1.411395073E1,1.174950004E0
2.042592915E0,-5.656950474E0,-1.330695057E1,1.750050068E0
2.045095684E0,-6.256050110E0,-1.340700054E1,2.514000177E0
2.047598453E0,-6.660000324E0,-1.399395084E1,3.265950203E0
2.050101213E0,-6.672000408E0,-1.424505043E1,4.188000202E0
2.052603982E0,-6.804000378E0,-1.425495052E1,5.125050068E0
2.055106741E0,-6.957000256E0,-1.419705105E1,6.147000313E0
2.057609510E0,-7.105950356E0,-1.411095047E1,7.366050243E0
2.060112279E0,-7.486950397E0,-1.408305073E1,8.418000221E0
2.062615049E0,-6.196050167E0,-1.375695038E1,8.608950615E0
2.065117819E0,-6.768000126E0,-1.382895088E1,8.419950485E0
2.067620589E0,-7.563000202E0,-1.411605072E1,9.256050110E0
2.070123358E0,-7.081950188E0,-1.381395054E1,9.220050812E0
2.072626127E0,-6.694050312E0,-1.366095066E1,9.184050560E0
2.075128896E0,-6.670050144E0,-1.345305061E1,9.313050270E0
2.077631665E0,-6.664950371E0,-1.318695068E1,9.397050858E0
2.080134434E0,-6.550050259E0,-1.304295063E1,9.606000900E0
2.082637203E0,-6.643950462E0,-1.277205086E1,9.706050873E0
2.085139972E0,-6.873000145E0,-1.248495102E1,9.739950180E0
2.087642707E0,-6.829950333E0,-1.212600040E1,9.538950920E0
2.090145401E0,-6.796950340E0,-1.181205082E1,9.238950729E0
2.092648154E0,-6.981000423E0,-1.155795097E1,8.989950180E0
2.095150924E0,-7.444050312E0,-1.129995060E1,8.949000359E0
2.097653669E0,-7.957950592E0,-1.100295067E1,9.007050514E0
2.100156515E0,-8.341950417E0,-1.079895020E1,8.940000534E0
2.102659209E0,-8.670000076E0,-1.081095028E1,8.818050385E0
2.105162058E0,-8.397000313E0,-1.053105068E1,8.470050812E0
2.107664752E0,-8.032950401E0,-1.029600048E1,7.951050282E0
2.110167596E0,-7.681050301E0,-1.003500080E1,7.432950497E0
2.112670367E0,-7.326000214E0,-9.685050011E0,6.859050274E0
2.115173136E0,-6.907050133E0,-9.429000854E0,6.207000256E0
2.117675906E0,-6.433050156E0,-9.007050514E0,5.449950218E0
2.120178675E0,-5.949000359E0,-8.803950310E0,4.465950012E0
2.122681367E0,-5.362050056E0,-8.754000664E0,3.280050039E0
2.125184134E0,-4.885950089E0,-8.822999954E0,1.885950089E0
2.127686876E0,-4.114050388E0,-8.998050690E0,4.519500136E-1
2.130189645E0,-3.316950083E0,-9.256950378E0,-1.260000110E0
2.132692414E0,-2.706000090E0,-9.486000061E0,-3.160950184E0
2.135195158E0,-2.412000179E0,-9.517950058E0,-4.684050083E0
2.137697928E0,-2.287050009E0,-9.556050301E0,-5.631000042E0
2.140200698E0,-2.337000132E0,-9.510000229E0,-6.241050243E0
2.142703492E0,-2.440050125E0,-9.501000404E0,-6.325050354E0
2.145206261E0,-2.824050188E0,-9.454950333E0,-5.326050282E0
2.147709106E0,-2.953050137E0,-9.409950256E0,-4.600950241E0
2.150211800E0,-3.103950262E0,-9.376049995E0,-3.601950169E0
2.152714644E0,-3.505950212E0,-9.307050705E0,-2.551050186E0
2.155217415E0,-3.760050297E0,-9.187050819E0,-1.699950099E0
2.157720108E0,-4.015950203E0,-9.145950317E0,-8.400000334E-1
2.160222875E0,-4.394999981E0,-8.955000877E0,-1.789500117E-1
2.162725644E0,-4.468950272E0,-8.800950050E0,3.850500286E-1
2.165228413E0,-4.318050385E0,-8.638950348E0,8.470500112E-1
2.167731169E0,-4.102050304E0,-8.554950714E0,1.282950044E0
2.170233938E0,-3.858000278E0,-8.457000732E0,1.843050122E0
2.172736697E0,-3.820050240E0,-8.356050491E0,2.341950178E0
2.175239466E0,-3.922950268E0,-8.155050278E0,2.827950239E0
2.177742230E0,-3.489000082E0,-8.037000656E0,3.343050241E0
2.180245000E0,-3.148950100E0,-7.987050533E0,3.718950272E0
2.182747846E0,-2.950050116E0,-7.876950264E0,4.225950241E0
2.185250569E0,-2.548050165E0,-7.720950603E0,4.789050102E0
2.187753413E0,-2.443050146E0,-7.554000378E0,5.388000488E0
2.190256083E0,-2.218050003E0,-7.348050117E0,5.848050117E0
2.192758850E0,-1.803000093E0,-7.402950287E0,6.147000313E0
2.195261619E0,-9.340500236E-1,-7.470000267E0,6.054000378E0
2.197764388E0,2.479500175E-1,-7.651950359E0,5.671050072E0
2.200267158E0,1.216050029E0,-7.933950424E0,5.410050392E0
2.202769927E0,2.080049992E0,-8.092950821E0,4.909050465E0
2.205272696E0,2.682000160E0,-8.124000549E0,4.144950390E0
2.207775465E0,3.580050230E0,-8.346000671E0,3.489000082E0
2.210278235E0,4.174050331E0,-8.542950630E0,2.887950182E0
2.212781005E0,4.492050171E0,-8.665050507E0,2.308050156E0
2.215283775E0,4.411050320E0,-8.574000359E0,2.188050032E0
2.217786544E0,3.991950274E0,-8.623950005E0,1.561050057E0
2.220289313E0,3.295050144E0,-8.442000389E0,9.690000415E-1
2.222792082E0,2.647950172E0,-8.196000099E0,6.600000262E-1
2.225294851E0,1.648950100E0,-7.980000496E0,4.350000322E-1
2.227797620E0,4.450500309E-1,-7.708950520E0,2.239500135E-1
2.230300399E0,-7.830000520E-1,-7.414950371E0,3.370500207E-1
2.232803168E0,-1.746000051E0,-7.245000362E0,6.649500132E-1
2.235305937E0,-2.503050089E0,-7.069950104E0,1.072050095E0
2.237808715E0,-3.067950249E0,-6.907050133E0,1.230000019E0
2.240311484E0,-3.451050282E0,-6.754050255E0,1.249050021E0
2.242814269E0,-3.637950182E0,-6.676950455E0,1.194000006E0
2.245317039E0,-3.850950241E0,-6.490050316E0,1.326000094E0
2.247819809E0,-4.045050144E0,-6.283950329E0,1.654050112E0
2.250322578E0,-4.042950153E0,-6.157050133E0,1.957950115E0
2.252825347E0,-3.979950190E0,-6.049950123E0,2.205000162E0
2.255328116E0,-4.014000416E0,-5.977950096E0,2.454000235E0
2.257830885E0,-4.026000023E0,-5.805000305E0,2.647950172E0
2.260333654E0,-4.177050114E0,-5.614050388E0,2.806050062E0
2.262836423E0,-4.396950245E0,-5.383950233E0,2.950050116E0
2.265339192E0,-4.615050316E0,-5.185050011E0,3.046050072E0
2.267841975E0,-4.866000175E0,-4.993050098E0,3.022050142E0
2.270344744E0,-5.083950043E0,-4.761000156E0,2.932950258E0
2.272847513E0,-5.245050430E0,-4.546050072E0,2.830050230E0
2.275350298E0,-5.487000465E0,-4.396950245E0,2.743950129E0
2.277853068E0,-5.868000507E0,-4.237050056E0,2.583000183E0
2.280355828E0,-6.001950264E0,-4.081050396E0,2.449050188E0
2.282858597E0,-5.995050430E0,-3.961050272E0,2.401050091E0
2.285361366E0,-6.010950089E0,-3.846000195E0,2.248050213E0
2.287864135E0,-6.018000126E0,-3.778950214E0,2.157000065E0
2.290366904E0,-6.006000519E0,-3.670950174E0,2.101950169E0
2.292869673E0,-6.085950375E0,-3.564000130E0,2.149950027E0
2.295372442E0,-6.217050076E0,-3.517950058E0,2.233950138E0
2.297875211E0,-6.375000477E0,-3.420000076E0,2.197950125E0
2.300377980E0,-6.577050209E0,-3.360000134E0,2.029950142E0
2.302880749E0,-6.799050331E0,-3.303000212E0,1.788000107E0
2.305383519E0,-6.984000206E0,-3.247050047E0,1.680000067E0
2.307886289E0,-7.294950485E0,-3.156000137E0,1.600950122E0
2.310389059E0,-7.483950138E0,-3.100950241E0,1.426950097E0
2.312891828E0,-7.566000462E0,-3.067950249E0,1.315950036E0
2.315394597E0,-7.615950584E0,-3.076950073E0,1.306950092E0
2.317897366E0,-7.567950249E0,-3.025050163E0,1.374000072E0
2.320400135E0,-7.411950588E0,-2.998050213E0,1.441050053E0
2.322902904E0,-7.321050167E0,-2.950050116E0,1.465050101E0
2.325405673E0,-7.378950119E0,-2.935950041E0,1.177950025E0
2.327908418E0,-7.426950455E0,-2.910000086E0,8.950500488E-1
2.330411187E0,-7.137000561E0,-2.886000156E0,6.940500140E-1
2.332913956E0,-6.948000431E0,-2.893050194E0,4.060500264E-1
2.335416739E0,-6.988050461E0,-2.955000162E0,9.495000541E-2
2.337919509E0,-7.069950104E0,-2.955000162E0,-8.805000782E-2
2.340422279E0,-7.225950241E0,-3.100950241E0,-3.949500322E-1
2.342925049E0,-7.423950195E0,-3.228000164E0,-7.450500131E-1
2.345427818E0,-7.414950371E0,-3.415050268E0,-1.102050066E0
2.347930587E0,-7.177950382E0,-3.682950258E0,-1.473000050E0
2.350433356E0,-6.751050472E0,-4.047000408E0,-1.900950074E0
2.352936125E0,-6.214950085E0,-4.456950188E0,-2.289000034E0
2.355438909E0,-5.617950439E0,-4.834950447E0,-2.689050198E0
2.357941678E0,-5.053050041E0,-5.331000328E0,-3.037050247E0
2.360444447E0,-4.512000084E0,-5.851050377E0,-3.360000134E0
2.362947216E0,-3.982950211E0,-6.406050205E0,-3.786000252E0
2.365449985E0,-3.481950283E0,-6.948000431E0,-4.183950424E0
2.367952754E0,-3.115950108E0,-7.423950195E0,-4.783050060E0
2.370455524E0,-2.791950226E0,-8.005949974E0,-5.737950325E0
2.372958294E0,-2.257950068E0,-8.638950348E0,-6.771000385E0
2.375461064E0,-1.983000040E0,-9.184950829E0,-7.702050209E0
2.377963833E0,-1.324050069E0,-9.895950317E0,-8.614950180E0
2.380466597E0,-1.054050088E0,-1.063095093E1,-9.987000465E0
2.382969366E0,-6.630000472E-1,-1.159395027E1,-1.103595066E1
2.385472135E0,6.105000153E-2,-1.268895054E1,-1.183395100E1
2.387974904E0,8.280000687E-1,-1.366605091E1,-1.237005043E1
2.390477673E0,1.609050035E0,-1.419000053E1,-1.212600040E1
2.392980422E0,2.605050087E0,-1.528005028E1,-1.135905075E1
2.395483191E0,3.870000124E0,-1.671495056E1,-1.008300018E1
2.397985951E0,4.236000061E0,-1.727295113E1,-8.703000069E0
2.400488721E0,4.666950226E0,-1.742805099E1,-6.984000206E0
2.402991491E0,5.604000092E0,-1.829505157E1,-5.295000076E0
2.405494261E0,6.034950256E0,-1.883205032E1,-3.742950201E0
2.407997044E0,5.443050385E0,-1.940895081E1,-2.986050129E0
2.410499813E0,4.549950123E0,-1.957695007E1,-2.914950132E0
2.413002573E0,2.926050186E0,-1.915995026E1,-3.199950218E0
2.415505342E0,1.024049997E0,-1.842000008E1,-3.625950098E0
2.418008111E0,-4.860000312E-1,-1.764195061E1,-4.002000332E0
2.420510880E0,-1.329000115E0,-1.688700104E1,-4.375950336E0
2.423013649E0,-1.830000043E0,-1.615904999E1,-4.711050034E0
2.425516418E0,-2.056950092E0,-1.547400093E1,-5.122950077E0
2.428019187E0,-1.947000146E0,-1.475100040E1,-5.680950165E0
2.430521956E0,-1.662000060E0,-1.403205109E1,-6.162000179E0
2.433024726E0,-1.195050001E0,-1.326300049E1,-6.535950184E0
2.435527496E0,-7.590000629E-1,-1.255395031E1,-6.724950314E0
2.438030266E0,-4.140000343E-1,-1.197300053E1,-6.804000378E0
2.440533010E0,-2.230500132E-1,-1.150800037E1,-6.751050472E0
2.443035779E0,-9.105000645E-2,-1.105005074E1,-6.595950127E0
2.445538548E0,-1.200000010E-2,-1.066995049E1,-6.358950138E0
2.448041322E0,1.570500135E-1,-1.029105091E1,-5.953950405E0
2.450544091E0,2.220000178E-1,-9.951000214E0,-5.542050362E0
2.453046889E0,2.080500126E-1,-9.652050018E0,-5.029050350E0
2.455549658E0,5.400000140E-2,-9.352050781E0,-4.423050404E0
2.458052427E0,-6.900000572E-2,-8.998050690E0,-3.817050219E0
2.460555210E0,-2.080500126E-1,-8.701050758E0,-3.148950100E0
2.463057979E0,-4.050000310E-1,-8.374950409E0,-2.617950201E0
2.465560749E0,-7.540500164E-1,-8.145000458E0,-2.356950045E0
2.468063519E0,-9.480000734E-1,-7.900950432E0,-1.984950066E0
2.470566289E0,-1.209000111E0,-7.678050518E0,-1.638000131E0
2.473069058E0,-1.429950118E0,-7.549050331E0,-1.318950057E0
2.475571837E0,-1.798050046E0,-7.479000568E0,-8.980500698E-1
2.478074606E0,-2.044950008E0,-7.410000324E0,-5.820000172E-1
2.480577375E0,-2.316000223E0,-7.378950119E0,-2.389500141E-1
2.483080220E0,-2.710950136E0,-7.491000175E0,4.005000368E-2
2.485582867E0,-3.049050093E0,-7.614000320E0,1.290000081E-1
2.488085711E0,-3.373950243E0,-7.804950237E0,3.420000076E-1
2.490588482E0,-3.697950125E0,-8.155050278E0,6.000000238E-1
2.493091251E0,-4.021049976E0,-8.365950584E0,6.220500469E-1
2.495594020E0,-4.227000237E0,-8.689050674E0,6.190500259E-1
2.498096790E0,-4.423050404E0,-8.956950188E0,7.110000253E-1
2.500599559E0,-4.653000355E0,-9.196950912E0,7.540500164E-1
2.503102328E0,-4.641000271E0,-9.546000481E0,7.969500422E-1
2.505605097E0,-4.729950428E0,-9.906000137E0,6.769500375E-1
2.508107780E0,-5.014950275E0,-1.025805092E1,5.599500537E-1
2.510610547E0,-5.230950356E0,-1.063605022E1,4.540500343E-1
2.513113316E0,-5.467950344E0,-1.101705074E1,2.790000141E-1
2.515616076E0,-5.803050041E0,-1.145805073E1,4.200000316E-2
2.518118846E0,-5.980050087E0,-1.162305069E1,-2.250000089E-1
2.520621571E0,-6.073950291E0,-1.175505066E1,-2.110500038E-1
2.523124340E0,-5.779050350E0,-1.169700050E1,-1.630500108E-1
2.525627186E0,-5.941950321E0,-1.172295094E1,1.950000064E-3
2.528129881E0,-6.415950298E0,-1.203495026E1,3.109500110E-1
2.530632730E0,-6.828000546E0,-1.198005104E1,9.040500522E-1
2.533135501E0,-7.290000439E0,-1.180695057E1,1.828950047E0
2.535638275E0,-7.944000244E0,-1.155300045E1,2.689050198E0
2.538141044E0,-8.430000305E0,-1.130205059E1,2.599950075E0
2.540643814E0,-8.770050049E0,-1.135500050E1,2.433000088E0
2.543146583E0,-8.754000664E0,-1.143105030E1,2.322000027E0
2.545649352E0,-9.070050240E0,-1.130700016E1,2.164050102E0
2.548152121E0,-9.664050102E0,-1.122000027E1,2.005950212E0
2.550654890E0,-9.922050476E0,-1.112205029E1,1.803000093E0
2.553157659E0,-9.762000084E0,-1.102200031E1,1.362000108E0
2.555660428E0,-9.466950417E0,-1.111500072E1,8.250000477E-1
2.558163197E0,-9.496050835E0,-1.129695034E1,7.800000310E-1
2.560665966E0,-9.645000458E0,-1.144995022E1,2.016000032E0
2.563168735E0,-9.175050735E0,-1.134000015E1,2.671950102E0
2.565671518E0,-8.611950874E0,-1.118700027E1,3.082050085E0
2.568174287E0,-8.104949951E0,-1.110105038E1,3.235050201E0
2.570677057E0,-7.672950268E0,-1.085895061E1,2.943000078E0
2.573179808E0,-7.317000389E0,-1.066995049E1,2.370000124E0
2.575682578E0,-7.180050373E0,-1.047105026E1,1.762050033E0
2.578185347E0,-7.149000168E0,-1.004700089E1,1.105949998E0
2.580688126E0,-7.329000473E0,-9.418950081E0,5.520000458E-1
2.583190895E0,-7.555950165E0,-8.789999962E0,7.605000585E-2
2.585693664E0,-7.795950413E0,-8.200050354E0,-2.080500126E-1
2.588196433E0,-8.109000206E0,-7.657050133E0,-3.490500152E-1
2.590699207E0,-8.416049957E0,-7.234950542E0,-3.780000210E-1
2.593201976E0,-8.806050301E0,-6.897000313E0,-3.330000043E-1
2.595704745E0,-9.058050156E0,-6.859050274E0,-1.870500147E-1
2.598207514E0,-9.331050873E0,-6.747000217E0,2.239500135E-1
2.600710283E0,-9.453000069E0,-6.583950520E0,6.600000262E-1
2.603213053E0,-9.304050446E0,-6.624000549E0,1.189950109E0
2.605715823E0,-8.920950890E0,-6.565050125E0,1.732950091E0
2.608218593E0,-8.203050613E0,-6.466050148E0,2.242950201E0
2.610721362E0,-7.489050388E0,-6.367950439E0,2.752950191E0
2.613224131E0,-6.730050087E0,-6.289050102E0,3.120000124E0
2.615726880E0,-6.049950123E0,-6.189000130E0,3.469950199E0
2.618229649E0,-5.512950420E0,-6.069000244E0,3.754950285E0
2.620732389E0,-5.194950104E0,-6.013950348E0,3.882000208E0
2.623235158E0,-4.905000210E0,-5.965950489E0,3.999000072E0
2.625737927E0,-4.617000103E0,-5.920050144E0,4.030050278E0
2.628240696E0,-4.347000122E0,-5.901000500E0,4.078050137E0
2.630743465E0,-4.107000351E0,-5.989950180E0,4.051949978E0
2.633246239E0,-3.979950190E0,-6.040050507E0,4.015950203E0
2.635749009E0,-3.970950127E0,-6.196050167E0,3.931950092E0
2.638251794E0,-3.868050098E0,-6.358950138E0,3.822000265E0
2.640754564E0,-3.637950182E0,-6.631950378E0,3.886050224E0
2.643257318E0,-3.634950161E0,-6.937950134E0,3.898050070E0
2.645760316E0,-3.724050283E0,-7.305000305E0,3.799950123E0
2.648262857E0,-3.670950174E0,-7.752000332E0,3.508050203E0
2.650765855E0,-3.676050186E0,-8.169000626E0,3.328050137E0
2.653268395E0,-3.745950222E0,-8.727000237E0,3.253950119E0
2.655771393E0,-3.789000273E0,-9.228000641E0,3.189000130E0
2.658274165E0,-3.774000168E0,-9.733050346E0,3.129000187E0
2.660776934E0,-3.769950151E0,-1.024800014E1,3.097950220E0
2.663279703E0,-3.786000252E0,-1.072200012E1,3.187050104E0
2.665782472E0,-3.805050135E0,-1.114095020E1,3.429000139E0
2.668285242E0,-3.760050297E0,-1.155795097E1,3.679950237E0
2.670788045E0,-3.628050089E0,-1.193205070E1,3.754950285E0
2.673290814E0,-3.472950220E0,-1.237695026E1,4.123050213E0
2.675793583E0,-2.902950048E0,-1.266195107E1,4.879950047E0
2.678296352E0,-2.299050093E0,-1.282305050E1,5.497950077E0
2.680799121E0,-1.854000092E0,-1.295895100E1,5.905050278E0
2.683301890E0,-1.686000109E0,-1.302195072E1,6.279000282E0
2.685804659E0,-1.636050105E0,-1.291905022E1,6.745950222E0
2.688307423E0,-1.501050115E0,-1.278405094E1,7.246950150E0
2.690810192E0,-1.398000121E0,-1.251105022E1,7.807050228E0
2.693312961E0,-1.369950056E0,-1.204695034E1,8.302950859E0
2.695815749E0,-8.839500546E-1,-1.203705025E1,8.482049942E0
2.698318518E0,-7.830000520E-1,-1.191705036E1,8.379000664E0
2.700821288E0,-1.090050101E0,-1.168305016E1,8.371950150E0
2.703324058E0,-1.197000027E0,-1.138305092E1,8.494050026E0
2.705826828E0,-6.900000572E-1,-1.105800056E1,8.214000702E0
2.708329622E0,-4.500000179E-2,-1.091895008E1,7.792950153E0
2.710832391E0,2.550000250E-1,-1.083000088E1,7.363950253E0
2.713335170E0,1.260000020E-1,-1.064805031E1,6.870000362E0
2.715837939E0,-1.410000026E-1,-1.043295002E1,6.312000275E0
2.718340708E0,-2.419500053E-1,-1.036095047E1,5.704050064E0
2.720843477E0,-1.290000081E-1,-1.033695030E1,5.212950230E0
2.723346246E0,1.095000096E-2,-1.045200062E1,4.998000145E0
2.725849015E0,3.060000241E-1,-1.045605087E1,5.068950176E0
2.728351784E0,4.470000267E-1,-1.038900089E1,5.056950092E0
2.730854553E0,4.180500209E-1,-1.026195049E1,5.067000389E0
2.733357323E0,4.570500255E-1,-1.010205078E1,5.071950436E0
2.735860093E0,6.169500351E-1,-1.003305054E1,5.136000156E0
2.738362863E0,6.510000229E-1,-9.946050644E0,4.957050323E0
2.740865707E0,4.399500191E-1,-9.697050095E0,4.650000095E0
2.743368392E0,3.130500019E-1,-9.517950058E0,4.557000160E0
2.745871236E0,2.460000068E-1,-9.565950394E0,4.510950089E0
2.748373930E0,1.950000064E-3,-9.457950592E0,4.360949993E0
2.750876774E0,-1.480500102E-1,-9.466950417E0,3.889050245E0
2.753379541E0,-2.460000068E-1,-9.463050842E0,3.277950048E0
2.755882310E0,-3.829500079E-1,-9.292050362E0,2.773050070E0
2.758385084E0,-6.180000305E-1,-9.285000801E0,2.482950211E0
2.760887853E0,-9.649500251E-1,-9.121950150E0,2.497050047E0
2.763390622E0,-9.240000248E-1,-9.012000084E0,2.518950224E0
2.765893391E0,-8.910000324E-1,-9.120000839E0,2.152050018E0
2.768396160E0,-9.600000381E-1,-9.319050789E0,1.716000080E0
2.770898929E0,-7.729500532E-1,-9.373950005E0,1.170000076E0
2.773401698E0,-5.119500160E-1,-9.211050034E0,5.719500184E-1
2.775904467E0,-5.460000038E-1,-9.103050232E0,6.000000052E-3
2.778407236E0,-9.220500588E-1,-9.019050598E0,-4.069500268E-1
2.780910005E0,-1.294950008E0,-9.115050316E0,-6.439500451E-1
2.783412793E0,-1.875000119E0,-9.264000893E0,-9.990000725E-1
2.785915563E0,-2.515050173E0,-9.393000603E0,-1.420050025E0
2.788418333E0,-2.977050066E0,-9.280950546E0,-1.978050113E0
2.790921103E0,-2.923950195E0,-9.307050705E0,-2.368050098E0
2.793423896E0,-2.959950209E0,-9.295050621E0,-2.886000156E0
2.795926665E0,-3.228000164E0,-9.112950325E0,-3.585000277E0
2.798429439E0,-3.304950237E0,-9.084000587E0,-4.408950329E0
2.800932208E0,-2.851950169E0,-9.007050514E0,-4.981050014E0
2.803434977E0,-2.721000195E0,-9.178050041E0,-5.713950157E0
2.805937746E0,-2.790000200E0,-9.193950653E0,-6.141000271E0
2.808440501E0,-2.898000240E0,-9.063000679E0,-6.487950325E0
2.810943270E0,-3.112950087E0,-8.944950104E0,-6.780000210E0
2.813446034E0,-3.352950096E0,-8.827950478E0,-6.871050358E0
2.815949034E0,-3.616050243E0,-8.596050262E0,-6.687000275E0
2.818451575E0,-3.825000286E0,-8.416049957E0,-6.648000240E0
2.820954573E0,-3.930000305E0,-8.350950241E0,-6.805950165E0
2.823457113E0,-4.114050388E0,-8.338950157E0,-6.799050331E0
2.825960111E0,-4.216950417E0,-8.442000389E0,-6.495000362E0
2.828462882E0,-4.443000317E0,-8.614950180E0,-6.304050446E0
2.830965652E0,-4.504950047E0,-8.839950562E0,-6.052050114E0
2.833468421E0,-4.440000057E0,-9.172950745E0,-5.484000206E0
2.835971190E0,-4.363950253E0,-9.369000435E0,-4.990950108E0
2.838473992E0,-4.450050354E0,-9.397950172E0,-4.567049980E0
2.840976762E0,-4.567049980E0,-9.345000267E0,-4.071000099E0
2.843479531E0,-4.840050220E0,-9.333000183E0,-3.391050100E0
2.845982300E0,-5.700000286E0,-9.393000603E0,-2.749050140E0
2.848485069E0,-6.100050449E0,-9.360000610E0,-2.188950062E0
2.850987838E0,-6.174000263E0,-9.216000557E0,-1.762950063E0
2.853490622E0,-6.184050083E0,-9.052950859E0,-1.173000097E0
2.855993391E0,-5.980050087E0,-8.964000702E0,-3.300000131E-1
2.858496169E0,-5.926950455E0,-8.851950645E0,3.300000131E-1
2.860998938E0,-5.640000343E0,-8.725049973E0,8.059500456E-1
2.863501707E0,-5.278050423E0,-8.686950684E0,1.453050017E0
2.866004548E0,-4.990950108E0,-8.619000435E0,2.188050032E0
2.868507242E0,-4.696050167E0,-8.518950462E0,2.809050083E0
2.871010009E0,-4.593000412E0,-8.374950409E0,3.477000237E0
2.873512856E0,-4.404000282E0,-8.299050331E0,3.934050083E0
2.876015550E0,-4.336950302E0,-8.152050018E0,4.288949966E0
2.878518394E0,-4.483050346E0,-8.068950653E0,4.654950142E0
2.881021165E0,-4.581000328E0,-8.023050308E0,4.915950298E0
2.883523935E0,-4.644000053E0,-7.927050591E0,4.974000454E0
2.886026704E0,-4.651050091E0,-7.936950207E0,4.983000278E0
2.888529473E0,-4.831050396E0,-7.927050591E0,4.878000259E0
2.891032228E0,-4.984050274E0,-7.944000244E0,4.684050083E0
2.893534997E0,-5.128050327E0,-7.981950283E0,4.555050373E0
2.896037766E0,-5.305050373E0,-8.037000656E0,4.377000332E0
2.898540530E0,-5.266050339E0,-8.149950027E0,4.095000267E0
2.901043299E0,-5.323950291E0,-8.325000763E0,3.766950130E0
2.903546096E0,-5.371950150E0,-8.480999947E0,3.319050074E0
2.906048865E0,-5.329050064E0,-8.755949974E0,2.892000198E0
2.908551634E0,-5.355000019E0,-9.031050682E0,2.389050007E0
2.911054393E0,-5.323950291E0,-9.244950294E0,1.897950053E0
2.913557162E0,-5.221050262E0,-9.493950844E0,1.378950119E0
2.916060162E0,-5.158950329E0,-9.775950432E0,8.280000687E-1
2.918562934E0,-5.130000114E0,-9.979950905E0,2.959500253E-1
2.921065472E0,-4.914000034E0,-1.023405075E1,-2.419500053E-1
2.923568239E0,-4.555050373E0,-1.047300053E1,-5.940000415E-1
2.926071009E0,-4.255949974E0,-1.073700047E1,-8.479500413E-1
2.928573783E0,-3.930000305E0,-1.095000076E1,-1.117950082E0
2.931076783E0,-3.561000109E0,-1.123695087E1,-1.377000093E0
2.933579554E0,-3.160950184E0,-1.149105072E1,-1.639950037E0
2.936082323E0,-2.704050064E0,-1.177395058E1,-1.854000092E0
2.938585093E0,-2.239050150E0,-1.206405067E1,-2.050050020E0
2.941087862E0,-1.813050032E0,-1.235100079E1,-2.146050215E0
2.943590631E0,-1.342950106E0,-1.262400055E1,-2.151000023E0
2.946093400E0,-9.649500251E-1,-1.290705109E1,-2.116950035E0
2.948596169E0,-6.750000119E-1,-1.310295105E1,-1.923000097E0
2.951098925E0,-3.829500079E-1,-1.327305031E1,-1.750950098E0
2.953601694E0,-9.000000544E-3,-1.340205097E1,-1.510950089E0
2.956104463E0,2.910000086E-1,-1.348395061E1,-1.264050007E0
2.958607212E0,2.839500010E-1,-1.332105064E1,-9.049500227E-1
2.961109981E0,2.029500157E-1,-1.306500053E1,-4.170000255E-1
2.963612745E0,6.390000582E-1,-1.332105064E1,-2.899500132E-1
2.966115514E0,1.072050095E0,-1.350300026E1,-1.699500084E-1
2.968618283E0,1.530000091E0,-1.367100048E1,-8.805000782E-2
2.971121053E0,1.795050144E0,-1.370895100E1,4.905000329E-2
2.973623838E0,1.921950102E0,-1.367100048E1,2.599500120E-1
2.976126608E0,2.023050070E0,-1.353600025E1,3.610500097E-1
2.978629377E0,2.077950001E0,-1.346895027E1,4.519500136E-1
2.981132146E0,2.121000051E0,-1.340205097E1,5.400000215E-1
2.983635001E0,2.111999989E0,-1.334700108E1,6.310500503E-1
2.986137695E0,2.133000135E0,-1.332795048E1,6.340500116E-1
2.988640505E0,2.083050013E0,-1.332300091E1,5.879999995E-1
2.991143276E0,2.104050159E0,-1.325595093E1,6.310500503E-1
2.993646046E0,1.989000082E0,-1.325595093E1,6.480000019E-1
2.996148815E0,1.989000082E0,-1.338300037E1,5.879999995E-1
2.998651584E0,2.016000032E0,-1.340205097E1,5.790000558E-1
3.001154353E0,1.972950101E0,-1.331895065E1,6.000000238E-1
3.003657122E0,1.894050121E0,-1.333500099E1,6.100500226E-1
3.006159891E0,1.815000057E0,-1.328295040E1,6.169500351E-1
3.008662660E0,1.771950126E0,-1.324200058E1,6.430500150E-1
3.011165429E0,1.780950069E0,-1.327500057E1,6.940500140E-1
3.013668203E0,1.798050046E0,-1.329000092E1,7.459500432E-1
3.016170972E0,1.728000045E0,-1.330905056E1,7.660500407E-1
3.018673952E0,1.669050097E0,-1.323000050E1,8.160000443E-1
3.021176492E0,1.615950108E0,-1.332795048E1,7.579500079E-1
3.023679490E0,1.491000056E0,-1.344300079E1,6.270000339E-1
3.026182022E0,1.405050039E0,-1.348905087E1,5.740500093E-1
3.028685020E0,1.294950008E0,-1.351305103E1,5.170500278E-1
3.031187791E0,1.077000022E0,-1.359405041E1,2.479500175E-1
3.033690348E0,9.070500135E-1,-1.369005108E1,1.395000052E-2
3.036193346E0,7.990500331E-1,-1.402695084E1,-2.179500163E-1
3.038696093E0,7.660500407E-1,-1.449405098E1,-5.170500278E-1
3.041198862E0,6.390000582E-1,-1.486800098E1,-9.220500588E-1
3.043701631E0,5.209500194E-1,-1.518405056E1,-1.552050114E0
3.046204400E0,3.820500076E-1,-1.534200096E1,-2.215050220E0
3.048707170E0,3.150000274E-1,-1.533795071E1,-3.007950068E0
3.051209939E0,2.320500165E-1,-1.531395054E1,-3.907950163E0
3.053712708E0,1.500000060E-1,-1.530900097E1,-4.845000267E0
3.056215477E0,9.300000221E-2,-1.529400063E1,-5.724000454E0
3.058718246E0,-8.400000632E-2,-1.529895115E1,-6.474000454E0
3.061221015E0,-1.360500008E-1,-1.538100052E1,-7.182000160E0
3.063723770E0,-1.840500087E-1,-1.540905094E1,-7.876950264E0
3.066226615E0,-2.700000107E-1,-1.545495033E1,-8.590950012E0
3.068729310E0,-5.890500546E-1,-1.547205067E1,-9.060000420E0
3.071232130E0,-9.000000358E-1,-1.543800068E1,-9.244950294E0
3.073734901E0,-1.108950019E0,-1.539495087E1,-9.148950577E0
3.076237660E0,-1.228050113E0,-1.537095070E1,-9.007050514E0
3.078740429E0,-1.420050025E0,-1.527795029E1,-8.683950424E0
3.081243199E0,-1.717050076E0,-1.518195057E1,-8.353950500E0
3.083745968E0,-2.004000187E0,-1.510500050E1,-8.089950562E0
3.086248742E0,-2.091000080E0,-1.511205101E1,-7.494000435E0
3.088751511E0,-2.122050047E0,-1.507905102E1,-6.730050087E0
3.091254280E0,-2.400000095E0,-1.497300053E1,-5.941950321E0
3.093757049E0,-2.758950233E0,-1.482705116E1,-5.098950386E0
3.096259818E0,-3.073050261E0,-1.473405075E1,-4.318050385E0
3.098762587E0,-3.280950069E0,-1.447800064E1,-3.646950245E0
3.101265356E0,-3.360000134E0,-1.416195107E1,-3.088950157E0
3.103768125E0,-3.547050238E0,-1.388400078E1,-2.745000124E0
3.106270894E0,-3.613950253E0,-1.390995026E1,-2.134050131E0
3.108773894E0,-3.682950258E0,-1.382895088E1,-1.303050041E0
3.111276395E0,-3.607050180E0,-1.364400101E1,-7.399500608E-1
3.113779388E0,-3.508050203E0,-1.352400017E1,-2.230500132E-1
3.116282160E0,-3.424950123E0,-1.329000092E1,9.000000358E-2
3.118784929E0,-3.523050070E0,-1.303605080E1,2.939999998E-1
3.121287698E0,-3.721950293E0,-1.277205086E1,7.300500274E-1
3.123790477E0,-3.643050194E0,-1.257600021E1,1.609050035E0
3.126293247E0,-3.588000059E0,-1.238205051E1,2.455950022E0
3.128796021E0,-3.433950186E0,-1.217595100E1,3.201000214E0
3.131298790E0,-3.018000126E0,-1.209000015E1,4.000950336E0
3.133801559E0,-2.721000195E0,-1.207500076E1,4.578000069E0
3.136304328E0,-2.709000111E0,-1.214295101E1,5.251050472E0
3.138807097E0,-2.686950207E0,-1.204695034E1,6.082950115E0
3.141309866E0,-3.304950237E0,-1.209000015E1,7.012050152E0
3.143812635E0,-4.015950203E0,-1.204200077E1,8.142000198E0
3.146315404E0,-4.681950092E0,-1.201995087E1,8.734050751E0
3.148818173E0,-5.089050293E0,-1.249500084E1,9.553050041E0
3.151320942E0,-5.584950447E0,-1.262400055E1,1.010400009E1
3.153823711E0,-6.330000401E0,-1.276500034E1,1.013700008E1
3.156326480E0,-7.405050278E0,-1.332600021E1,1.017300034E1
3.158829250E0,-8.488050461E0,-1.368300056E1,1.028100014E1
3.161332081E0,-9.421950340E0,-1.403505039E1,1.021395016E1
3.163834775E0,-1.012800026E1,-1.450605106E1,1.010400009E1
3.166337624E0,-1.060500050E1,-1.492800045E1,9.964950562E0
3.168840396E0,-1.111500072E1,-1.529205036E1,1.017300034E1
3.171343165E0,-1.215900040E1,-1.488000107E1,1.080105019E1
3.173845934E0,-1.295205021E1,-1.422600079E1,1.134900093E1
3.176348703E0,-1.265700054E1,-1.449900055E1,1.109100056E1
3.178851473E0,-1.282005024E1,-1.474395084E1,1.062600040E1
3.181354242E0,-1.305300045E1,-1.496100044E1,1.017795086E1
3.183857011E0,-1.252800083E1,-1.548600101E1,9.807000160E0
3.186359780E0,-1.084905052E1,-1.548105049E1,9.367950439E0
3.188862549E0,-6.748950481E0,-1.462095070E1,8.011050224E0
3.191365318E0,-9.213000298E0,-1.432005024E1,7.651050568E0
3.193868087E0,-1.162995052E1,-1.412100029E1,6.892050266E0
3.196370856E0,-1.341900063E1,-1.363695049E1,5.886000156E0
3.198873625E0,-1.425495052E1,-1.289895058E1,4.546950340E0
3.201376394E0,-1.440300083E1,-1.210695076E1,2.797050238E0
3.203879389E0,-1.454205036E1,-1.150095081E1,8.179500103E-1
3.206382160E0,-1.426905060E1,-1.105005074E1,-1.702950120E0
3.208884915E0,-1.329195023E1,-1.065795040E1,-5.002950191E0
3.211387684E0,-1.221195030E1,-1.027200031E1,-8.425950050E0
3.213890468E0,-1.103805065E1,-1.001805019E1,-1.146705055E1
3.216393237E0,-9.931950569E0,-9.769050598E0,-1.283205032E1
3.218896006E0,-9.406949997E0,-9.661050797E0,-1.139805031E1
3.221398804E0,-8.767950058E0,-9.465000153E0,-9.889050484E0
3.223901573E0,-8.446949959E0,-9.237000465E0,-8.578950882E0
3.226404342E0,-7.930050373E0,-9.076950073E0,-7.326000214E0
3.228907111E0,-7.678050518E0,-8.812950134E0,-5.911050320E0
3.231409956E0,-7.330950260E0,-8.572050095E0,-4.572000027E0
3.233912727E0,-7.585050583E0,-8.778000832E0,-3.046050072E0
3.236415497E0,-7.258950233E0,-8.857050896E0,-1.947000146E0
3.238918266E0,-6.451950073E0,-7.855050564E0,-1.267050028E0
3.241421035E0,-6.508950233E0,-7.590000153E0,-4.600500166E-1
3.243923804E0,-6.643950462E0,-7.450950146E0,5.260500312E-1
3.246426573E0,-6.505050182E0,-7.246950150E0,1.351950049E0
3.248929337E0,-6.289050102E0,-7.114950180E0,1.932000041E0
3.251432106E0,-6.184050083E0,-6.996000290E0,2.538000107E0
3.253934885E0,-6.154950142E0,-6.931050301E0,3.007050037E0
3.256437654E0,-6.406050205E0,-7.129950523E0,3.343050241E0
3.258940456E0,-6.058950424E0,-6.768000126E0,3.400050163E0
3.261443456E0,-5.319000244E0,-6.169050217E0,3.493950129E0
3.263946227E0,-5.046000004E0,-6.234000206E0,3.649050236E0
3.266448996E0,-4.807050228E0,-6.102000237E0,3.807000160E0
3.268951766E0,-4.615050316E0,-5.892000198E0,3.775950193E0
3.271454535E0,-4.324950218E0,-5.779050350E0,3.898050070E0
3.273957304E0,-4.189050198E0,-5.628000259E0,3.867000103E0
3.276460073E0,-4.165050030E0,-5.494050026E0,4.147050381E0
3.278962842E0,-4.039950371E0,-5.431950092E0,4.660050392E0
3.281465611E0,-3.312000275E0,-5.595000267E0,5.007000446E0
3.283968385E0,-2.959950209E0,-5.563050270E0,5.410050392E0
3.286471154E0,-3.025050163E0,-5.335950375E0,5.683050156E0
3.288973999E0,-3.208950043E0,-5.070000172E0,5.704050064E0
3.291476684E0,-3.115950108E0,-4.914000034E0,5.929050446E0
3.293979528E0,-2.622000217E0,-4.804050446E0,6.460950375E0
3.296482222E0,-1.564050078E0,-4.938000202E0,6.892050266E0
3.298985076E0,3.390000165E-1,-5.508000374E0,6.697950363E0
3.301487848E0,2.169000149E0,-6.208050251E0,5.745000362E0
3.303990617E0,3.715950251E0,-6.616950512E0,4.978050232E0
3.306493386E0,5.007000446E0,-7.105950356E0,4.593000412E0
3.308996155E0,5.508000374E0,-7.450950146E0,3.192000151E0
3.311498924E0,5.737950325E0,-7.585050583E0,2.056950092E0
3.314001707E0,5.647050381E0,-7.803000450E0,1.326000094E0
3.316504476E0,5.263050079E0,-7.923000336E0,9.090000391E-1
3.319007245E0,4.642950058E0,-7.891050339E0,5.020500422E-1
3.321510014E0,3.649050236E0,-7.755000591E0,3.799500167E-1
3.324013013E0,2.332050085E0,-7.470000267E0,4.999500215E-1
3.326515554E0,7.579500079E-1,-7.087050438E0,8.370000124E-1
3.329018552E0,-7.450500131E-1,-6.739050388E0,1.237050056E0
3.331521323E0,-1.927950144E0,-6.375000477E0,1.762050033E0
3.334024092E0,-2.617950201E0,-6.034950256E0,2.111999989E0
3.336526862E0,-3.061050177E0,-5.767050266E0,2.236050129E0
3.339029641E0,-3.324000120E0,-5.487000465E0,2.401050091E0
3.341532410E0,-3.451050282E0,-5.283000469E0,2.658000231E0
3.344035188E0,-3.396000147E0,-5.245050430E0,2.835000038E0
3.346537957E0,-3.766950130E0,-4.888050079E0,3.133950233E0
3.349040726E0,-4.159950256E0,-4.464000225E0,3.465000153E0
3.351543495E0,-4.387050152E0,-4.074000359E0,3.726000071E0
3.354046269E0,-4.560000420E0,-3.808050156E0,3.943950176E0
3.356549038E0,-4.653000355E0,-3.573000193E0,3.991950274E0
3.359051817E0,-4.774950027E0,-3.307050228E0,4.048950195E0
3.361554586E0,-4.902000427E0,-3.061050177E0,4.059000015E0
3.364057355E0,-4.998000145E0,-2.766000032E0,4.024950027E0
3.366560206E0,-5.122950077E0,-2.541000128E0,3.907950163E0
3.369062978E0,-5.259000301E0,-2.353950024E0,3.709050179E0
3.371565747E0,-5.281050205E0,-2.152950048E0,3.606000185E0
3.374068516E0,-5.259000301E0,-1.930050135E0,3.412050247E0
3.376571285E0,-5.271000385E0,-1.782000065E0,3.333000183E0
3.379074055E0,-5.575050354E0,-1.650000095E0,3.271050215E0
3.381576824E0,-5.980050087E0,-1.509000063E0,3.285000086E0
3.384079593E0,-6.439950466E0,-1.387050033E0,3.187050104E0
3.386582362E0,-6.919050217E0,-1.357950091E0,3.096000195E0
3.389085380E0,-7.266000271E0,-1.288050056E0,3.004950047E0
3.391588152E0,-7.495950222E0,-1.284000039E0,2.947050095E0
3.394090921E0,-7.666050434E0,-1.243050098E0,2.943000078E0
3.396593666E0,-8.014050484E0,-1.159050107E0,2.916000128E0
3.399096435E0,-8.229000092E0,-1.159050107E0,2.931000233E0
3.401599204E0,-8.289000511E0,-1.144950032E0,2.799000025E0
3.404101974E0,-8.506950378E0,-1.144950032E0,2.581050158E0
3.406604748E0,-8.667000771E0,-1.060950041E0,2.413050175E0
3.409107517E0,-8.574000359E0,-1.009950042E0,2.241000175E0
3.411610341E0,-8.440050125E0,-1.051050067E0,2.111999989E0
3.414113113E0,-8.236050606E0,-1.141950011E0,1.885950089E0
3.416615882E0,-7.846050262E0,-1.195050001E0,1.870050073E0
3.419118651E0,-7.744950294E0,-1.201950073E0,1.945950150E0
3.421621420E0,-8.037000656E0,-1.228050113E0,1.477050066E0
3.424124190E0,-8.212050438E0,-1.327050090E0,1.144050002E0
3.426626959E0,-8.361000061E0,-1.417950034E0,8.809500337E-1
3.429129728E0,-8.490000725E0,-1.474950075E0,6.480000019E-1
3.431632497E0,-8.518950462E0,-1.651950121E0,3.030000031E-1
3.434135252E0,-8.329950333E0,-1.863000035E0,-1.030500084E-1
3.436638021E0,-8.095050812E0,-2.151000023E0,-4.980000257E-1
3.439141020E0,-7.906050205E0,-2.560050011E0,-9.870000482E-1
3.441643569E0,-7.815000534E0,-2.955000162E0,-1.557000041E0
3.444146567E0,-7.717050552E0,-3.441000223E0,-2.092950106E0
3.446649338E0,-7.429050446E0,-4.011000156E0,-2.721000195E0
3.449151892E0,-7.000050545E0,-4.711050034E0,-3.228000164E0
3.451654890E0,-6.361050129E0,-5.434050083E0,-3.907950163E0
3.454157661E0,-5.710050106E0,-6.090000153E0,-4.696050167E0
3.456660430E0,-5.062950134E0,-6.838050365E0,-5.506050110E0
3.459163200E0,-4.190999985E0,-7.684950352E0,-6.856950283E0
3.461665969E0,-3.382050276E0,-8.524050713E0,-8.215050697E0
3.464168738E0,-2.790000200E0,-9.324000359E0,-9.814950943E0
3.466671507E0,-2.464050055E0,-1.021905041E1,-1.218600082E1
3.469174276E0,-1.897050142E0,-1.147200012E1,-1.445400047E1
3.471677045E0,-1.228050113E0,-1.280100060E1,-1.669799995E1
3.474179890E0,-4.260000288E-1,-1.402305031E1,-1.887300110E1
3.476682642E0,8.350500464E-1,-1.609905052E1,-2.045100021E1
3.479185411E0,3.211050034E0,-1.771305084E1,-2.023800087E1
3.481688181E0,5.778000355E0,-1.929195023E1,-1.861605072E1
3.484190945E0,7.735050201E0,-2.134200096E1,-1.598205090E1
3.486693714E0,9.832950592E0,-2.319600105E1,-1.243995094E1
3.489196483E0,1.154295063E1,-2.480505180E1,-8.239050865E0
3.491699252E0,1.215405083E1,-2.607705116E1,-4.807050228E0
3.494202021E0,1.201305103E1,-2.690100098E1,-2.431050062E0
3.496705020E0,1.103295040E1,-2.725005150E1,-1.390950084E0
3.499207791E0,9.189000130E0,-2.721405220E1,-1.494000077E0
3.501710560E0,6.894000530E0,-2.621805191E1,-2.589000225E0
3.504213330E0,4.950000286E0,-2.493405151E1,-3.901050091E0
3.506716099E0,3.280050039E0,-2.368395042E1,-5.334000111E0
3.509218868E0,2.040000200E0,-2.251500130E1,-6.475950241E0
3.511721637E0,9.259500504E-1,-2.130105019E1,-7.273050308E0
3.514224382E0,2.290500104E-1,-1.979700089E1,-7.942050457E0
3.516727151E0,-2.659500241E-1,-1.831200027E1,-8.542950630E0
3.519229929E0,-5.599500537E-1,-1.686600113E1,-9.103050232E0
3.521732698E0,-5.790000558E-1,-1.525800037E1,-9.460050583E0
3.524235543E0,-6.010500193E-1,-1.364400101E1,-9.436050415E0
3.526738238E0,-4.740000367E-1,-1.230495071E1,-9.228000641E0
3.529241082E0,-1.770000011E-1,-1.123995018E1,-8.845050812E0
3.531743853E0,1.240500063E-1,-1.039905071E1,-8.341950417E0
3.534246613E0,3.870000243E-1,-9.786000252E0,-7.633050442E0
3.536749383E0,5.050500035E-1,-9.300000191E0,-6.760950089E0
3.539252152E0,4.279500246E-1,-8.866050720E0,-5.764950275E0
3.541754925E0,4.450500309E-1,-8.446949959E0,-4.831050396E0
3.544257694E0,3.250500262E-1,-8.085000038E0,-3.813000202E0
3.546760463E0,9.000000544E-3,-7.780950546E0,-2.742000103E0
3.549263232E0,-6.030000448E-1,-7.396050453E0,-1.854000092E0
3.551766231E0,-1.171050072E0,-7.113000393E0,-1.099050045E0
3.554269002E0,-1.422000051E0,-7.182000160E0,-4.120500088E-1
3.556771771E0,-2.248950005E0,-6.969000340E0,1.020000055E-1
3.559274540E0,-3.010050058E0,-6.996000290E0,5.190000534E-1
3.561777310E0,-3.394050121E0,-7.374000549E0,6.720000505E-1
3.564280075E0,-3.882000208E0,-7.743000507E0,6.600000262E-1
3.566782919E0,-4.669950008E0,-8.037000656E0,5.910000205E-1
3.569285613E0,-5.068050385E0,-8.670000076E0,3.390000165E-1
3.571788453E0,-5.379000187E0,-9.325950623E0,-3.600000218E-2
3.574291147E0,-5.571000099E0,-1.008000088E1,-4.410000145E-1
3.576794005E0,-5.676000118E0,-1.077300072E1,-8.640000224E-1
3.579296776E0,-5.712000370E0,-1.132305050E1,-1.345950007E0
3.581799546E0,-5.986950397E0,-1.194405079E1,-2.055000067E0
3.584302315E0,-6.046950340E0,-1.258095074E1,-3.267000198E0
3.586805099E0,-6.172050476E0,-1.309095097E1,-4.651050091E0
3.589307868E0,-6.447000504E0,-1.341195107E1,-6.052050114E0
3.591810637E0,-6.885000229E0,-1.395300102E1,-7.489050388E0
3.594313406E0,-7.333050251E0,-1.447995090E1,-8.629050255E0
3.596816175E0,-7.887000561E0,-1.489695072E1,-8.991000175E0
3.599318944E0,-8.167050362E0,-1.486095047E1,-8.149950027E0
3.601821713E0,-8.368050575E0,-1.434795094E1,-6.735000134E0
3.604324712E0,-8.503950119E0,-1.366305065E1,-4.890000343E0
3.606827484E0,-8.940000534E0,-1.265700054E1,-2.428050041E0
3.609330252E0,-9.370950699E0,-1.174305058E1,-5.719500184E-1
3.611833021E0,-1.002105045E1,-1.133505058E1,9.040500522E-1
3.614335790E0,-1.005405045E1,-1.065000057E1,2.326950073E0
3.616838560E0,-9.870000839E0,-9.913050652E0,3.484050274E0
3.619341315E0,-9.642000198E0,-9.024000168E0,4.593000412E0
3.621844084E0,-9.568050385E0,-8.053950310E0,5.848050117E0
3.624346928E0,-9.403050423E0,-7.309050560E0,6.636000156E0
3.626849713E0,-9.148950577E0,-6.823050499E0,6.844050407E0
3.629352483E0,-9.181950569E0,-6.612000465E0,7.042950153E0
3.631855252E0,-9.079050064E0,-6.529050350E0,7.249050140E0
3.634358026E0,-8.734050751E0,-6.331950188E0,7.239000320E0
3.636860795E0,-8.480999947E0,-6.105000496E0,7.086000443E0
3.639363564E0,-8.016000748E0,-5.881950378E0,6.826950550E0
3.641866333E0,-7.510950565E0,-5.740950108E0,6.624000549E0
3.644369102E0,-7.137000561E0,-5.632950306E0,6.616950512E0
3.646871871E0,-6.781950474E0,-5.578050137E0,6.684000492E0
3.649374640E0,-6.337050438E0,-5.580000401E0,6.930000305E0
3.651877409E0,-6.001950264E0,-5.623050213E0,7.267950535E0
3.654380409E0,-5.812050343E0,-5.809950352E0,7.608000278E0
3.656882949E0,-5.688000202E0,-6.010950089E0,7.714050293E0
3.659385966E0,-5.614050388E0,-6.259950161E0,7.536000252E0
3.661888738E0,-5.700000286E0,-6.603000164E0,7.170000553E0
3.664391507E0,-6.010950089E0,-6.976050377E0,6.655050278E0
3.666894276E0,-6.370950222E0,-7.420050144E0,6.097050190E0
3.669397045E0,-6.732000351E0,-7.735950470E0,5.563050270E0
3.671899814E0,-7.021950245E0,-8.140049934E0,5.059950352E0
3.674402594E0,-7.386000156E0,-8.446949959E0,4.621950150E0
3.676905438E0,-7.659000397E0,-8.581050873E0,4.264950275E0
3.679408194E0,-8.028000832E0,-8.749050140E0,4.032000065E0
3.681910963E0,-8.068950653E0,-8.851950645E0,3.952950239E0
3.684413733E0,-7.896000385E0,-8.956950188E0,3.939000130E0
3.686916502E0,-7.920000553E0,-8.907000542E0,3.970050097E0
3.689419271E0,-7.720950603E0,-8.746050835E0,3.846000195E0
3.691922040E0,-7.432050228E0,-8.629050255E0,3.727950096E0
3.694424809E0,-7.174950123E0,-8.536050797E0,3.727950096E0
3.696927808E0,-6.706050396E0,-8.421000481E0,3.810000181E0
3.699430348E0,-6.319950104E0,-8.293950081E0,3.883950233E0
3.701933346E0,-6.114000320E0,-8.179050446E0,3.931950092E0
3.704435886E0,-5.731050491E0,-8.116950035E0,3.964950085E0
3.706938654E0,-5.263950348E0,-8.109000206E0,3.943950176E0
3.709441674E0,-4.840050220E0,-8.056950569E0,3.973050117E0
3.711944445E0,-4.468950272E0,-8.064000130E0,4.035000324E0
3.714447145E0,-4.324950218E0,-8.176050186E0,4.054049969E0
3.716949914E0,-4.159950256E0,-8.245950699E0,4.092000008E0
3.719452675E0,-3.973050117E0,-8.348999977E0,4.083000183E0
3.721955444E0,-3.754950285E0,-8.425050735E0,4.143000126E0
3.724458288E0,-3.645000219E0,-8.614950180E0,4.114050388E0
3.726961059E0,-3.598950148E0,-8.799000740E0,4.063950062E0
3.729463828E0,-3.673950195E0,-9.084000587E0,3.892950296E0
3.731966597E0,-3.730950117E0,-9.532050133E0,3.412050247E0
3.734469366E0,-3.765000105E0,-9.963000298E0,3.156000137E0
3.736972135E0,-3.922950268E0,-1.020000076E1,3.060000181E0
3.739474904E0,-3.808050156E0,-1.059795094E1,3.016950130E0
3.741977673E0,-3.856050253E0,-1.096905041E1,2.983050108E0
3.744480672E0,-3.808050156E0,-1.141005039E1,2.968950033E0
3.746983212E0,-3.561000109E0,-1.186995029E1,3.043050051E0
3.749486210E0,-3.298050165E0,-1.217805099E1,3.004950047E0
3.751988981E0,-2.971950054E0,-1.239600086E1,3.144000053E0
3.754491747E0,-2.632050037E0,-1.252800083E1,3.502950191E0
3.756994516E0,-2.377950191E0,-1.263105106E1,3.706950188E0
3.759497285E0,-2.172000170E0,-1.278705025E1,3.916950226E0
3.762000054E0,-2.016000032E0,-1.278000069E1,4.317000389E0
3.764502824E0,-1.879950047E0,-1.280400085E1,4.684050083E0
3.767005602E0,-1.738950133E0,-1.273200035E1,5.304000378E0
3.769508371E0,-1.681050062E0,-1.253505039E1,5.802000046E0
3.772011215E0,-1.497000098E0,-1.245900059E1,6.126000404E0
3.774513987E0,-1.185000062E0,-1.237695026E1,6.340950489E0
3.777016756E0,-9.289500713E-1,-1.223100090E1,6.496950150E0
3.779519525E0,-6.820500493E-1,-1.201800060E1,6.538050175E0
3.782022294E0,-4.399500191E-1,-1.181205082E1,6.411000252E0
3.784525063E0,-3.210000098E-1,-1.157295036E1,6.145050526E0
3.787028061E0,-3.810000122E-1,-1.126800060E1,5.788050175E0
3.789530573E0,-3.019500077E-1,-1.106505013E1,5.424000263E0
3.792033571E0,2.295000106E-2,-1.084005070E1,5.319000244E0
3.794536347E0,3.250500262E-1,-1.059495068E1,5.254050255E0
3.797039116E0,4.380000234E-1,-1.038900089E1,5.113050461E0
3.799541858E0,5.140500069E-1,-1.012395000E1,4.849050045E0
3.802044627E0,5.239500403E-1,-9.963000298E0,4.585950375E0
3.804547396E0,4.399500191E-1,-9.895950317E0,4.441950321E0
3.807050189E0,3.180000186E-1,-9.798000336E0,4.423050404E0
3.809552958E0,2.479500175E-1,-9.834000587E0,4.357950211E0
3.812055727E0,2.320500165E-1,-9.882000923E0,4.123050213E0
3.814558496E0,2.595000155E-2,-9.712050438E0,3.643950224E0
3.817061341E0,-1.410000026E-1,-9.616050720E0,3.205950260E0
3.819564112E0,-2.320500165E-1,-9.645000458E0,3.000000238E0
3.822066882E0,-2.419500053E-1,-9.673050880E0,2.679000139E0
3.824569651E0,-4.050000310E-1,-9.714000702E0,2.308050156E0
3.827072420E0,-6.780000329E-1,-9.709050179E0,1.888950109E0
3.829575418E0,-7.969500422E-1,-9.646950722E0,1.458000064E0
3.832078155E0,-9.070500135E-1,-9.561000824E0,9.070500135E-1
3.834580925E0,-1.108950019E0,-9.473999977E0,4.489500225E-1
3.837083694E0,-1.228050113E0,-9.429000854E0,2.100000083E-1
3.839586468E0,-1.132950068E0,-9.345000267E0,4.905000329E-2
3.842089237E0,-1.212000012E0,-9.307050705E0,1.639500111E-1
3.844592021E0,-1.306950092E0,-9.271050453E0,-1.669500023E-1
3.847094790E0,-1.312050104E0,-9.131999969E0,-8.959500194E-1
3.849597559E0,-1.597050071E0,-9.046050072E0,-1.473000050E0
3.852100333E0,-1.996950150E0,-8.863950729E0,-1.707000136E0
3.854603177E0,-2.179050207E0,-8.667000771E0,-1.849050045E0
3.857105843E0,-2.209950209E0,-8.500050545E0,-1.866000056E0
3.859608687E0,-2.305950165E0,-8.425050735E0,-1.885050058E0
3.862111458E0,-2.281949997E0,-8.329950333E0,-1.686000109E0
3.864614227E0,-2.170050144E0,-8.220000267E0,-1.470000029E0
3.867116997E0,-1.990050077E0,-8.184000015E0,-1.365000010E0
3.869619766E0,-1.842000127E0,-8.185950279E0,-1.063050032E0
3.872122535E0,-1.753050089E0,-8.248050690E0,-7.830000520E-1
3.874625533E0,-1.779000044E0,-8.224050522E0,-7.140000463E-1
3.877128304E0,-1.939950109E0,-8.272050858E0,-6.079500318E-1
3.879631055E0,-2.299050093E0,-8.293950081E0,-5.989500284E-1
3.882133824E0,-2.668050051E0,-8.313000679E0,-7.950000167E-1
3.884636593E0,-3.001050234E0,-8.320050240E0,-8.790000677E-1
3.887139416E0,-3.360000134E0,-8.221950531E0,-1.006049991E0
3.889642186E0,-3.588000059E0,-8.242950439E0,-1.125000000E0
3.892144955E0,-3.837000132E0,-8.365950584E0,-1.140000105E0
3.894647748E0,-4.027950287E0,-8.480999947E0,-1.011000037E0
3.897150592E0,-4.030950069E0,-8.464050293E0,-1.180950046E0
3.899653286E0,-3.973050117E0,-8.548050880E0,-1.470000029E0
3.902156145E0,-3.865050077E0,-8.611950874E0,-1.983000040E0
3.904658916E0,-4.035000324E0,-8.682000160E0,-2.482950211E0
3.907161685E0,-4.252950191E0,-8.670000076E0,-2.818950176E0
3.909664454E0,-4.368000031E0,-8.536050797E0,-3.223950148E0
3.912167224E0,-4.294050217E0,-8.480999947E0,-3.649950266E0
3.914670222E0,-4.402050018E0,-8.356050491E0,-3.907950163E0
3.917172993E0,-4.548000336E0,-8.341950417E0,-4.114050388E0
3.919675762E0,-4.579050064E0,-8.373000145E0,-4.153050423E0
3.922178531E0,-4.443000317E0,-8.314949989E0,-4.074000359E0
3.924681296E0,-4.351950169E0,-8.245950699E0,-4.066950321E0
3.927184065E0,-4.443000317E0,-8.269950867E0,-3.774000168E0
3.929686834E0,-4.438050270E0,-8.289000511E0,-3.382050276E0
3.932189589E0,-4.411050320E0,-8.212050438E0,-3.076950073E0
3.934692358E0,-4.228950024E0,-8.233950615E0,-2.730000019E0
3.937195127E0,-4.228950024E0,-8.278950691E0,-2.254050016E0
3.939697972E0,-4.150050163E0,-8.329950333E0,-1.569000125E0
3.942200743E0,-4.126049995E0,-8.473050117E0,-9.600000381E-1
3.944703502E0,-3.987000227E0,-8.596050262E0,-4.069500268E-1
3.947206272E0,-4.002000332E0,-8.584050179E0,2.700000107E-1
3.949709041E0,-3.889050245E0,-8.526000023E0,8.760000467E-1
3.952212054E0,-3.760050297E0,-8.536050797E0,1.297050118E0
3.954714820E0,-3.669000149E0,-8.518950462E0,1.812000036E0
3.957217589E0,-3.694950104E0,-8.539950371E0,2.242950201E0
3.959720359E0,-3.700050116E0,-8.662950516E0,2.665050030E0
3.962223128E0,-3.697950125E0,-8.739000320E0,3.028950214E0
3.964725897E0,-3.681000233E0,-8.836950302E0,3.421950102E0
3.967228666E0,-3.717000246E0,-9.075000763E0,3.714000225E0
3.969731435E0,-3.796050072E0,-9.300000191E0,3.874050140E0
3.972234204E0,-3.898950100E0,-9.558000565E0,4.176000118E0
3.974736973E0,-4.063950062E0,-9.907950401E0,4.344000340E0
3.977239818E0,-4.296000004E0,-1.028895092E1,4.258049965E0
3.979742603E0,-4.512000084E0,-1.066500092E1,4.080000401E0
3.982245373E0,-4.668000221E0,-1.107405090E1,3.673050165E0
3.984748142E0,-4.657950401E0,-1.148895073E1,3.259050131E0
3.987250911E0,-4.464000225E0,-1.191000080E1,2.809050083E0
3.989753880E0,-4.231950283E0,-1.217805099E1,2.265000105E0
3.992256651E0,-3.919950247E0,-1.232700062E1,1.636950135E0
3.994759436E0,-3.565950155E0,-1.241100025E1,9.640500546E-1
3.997262205E0,-3.231000185E0,-1.240800095E1,2.989500165E-1
3.999764974E0,-2.902950048E0,-1.242000103E1,-4.120500088E-1
4.002267743E0,-2.577000141E0,-1.244700050E1,-1.132950068E0
4.004770513E0,-2.164950132E0,-1.235805035E1,-1.906050086E0
4.007273282E0,-2.134050131E0,-1.198905087E1,-2.440050125E0
4.009776051E0,-1.683000088E0,-1.213995075E1,-3.103950262E0
4.012278820E0,-1.269000053E0,-1.224300098E1,-3.846000195E0
4.014781664E0,-8.359500170E-1,-1.237695026E1,-4.483050346E0
4.017284436E0,-5.170500278E-1,-1.251105022E1,-5.058000088E0
4.019787190E0,-3.450000286E-1,-1.252800083E1,-5.343000412E0
4.022289959E0,-2.370000184E-1,-1.251105022E1,-5.341050148E0
4.024792714E0,-9.300000221E-2,-1.245900059E1,-5.191950321E0
4.027295484E0,-4.005000368E-2,-1.240095043E1,-4.744050026E0
4.029798482E0,-1.905000024E-2,-1.241295052E1,-4.087950230E0
4.032301267E0,7.095000148E-2,-1.243200016E1,-3.232950211E0
4.034804036E0,1.000500023E-1,-1.242000103E1,-2.395050049E0
4.037306824E0,6.405000389E-2,-1.250205040E1,-1.494000077E0
4.039809594E0,4.050000105E-3,-1.261200047E1,-5.509500504E-1
4.042312363E0,1.000500023E-1,-1.276500034E1,3.010500073E-1
4.044815132E0,2.050500065E-1,-1.298295021E1,1.078950047E0
4.047317901E0,2.320500165E-1,-1.314105034E1,1.828950047E0
4.049820745E0,2.700000107E-1,-1.334205055E1,2.500050068E0
4.052323517E0,3.559500277E-1,-1.355805111E1,2.980950117E0
4.054826286E0,4.399500191E-1,-1.371600056E1,3.316050053E0
4.057329055E0,5.020500422E-1,-1.382100105E1,3.738000154E0
4.059831824E0,7.390500307E-1,-1.397505093E1,4.087049961E0
4.062334594E0,9.760500193E-1,-1.402500057E1,4.369950294E0
4.064837592E0,1.004999995E0,-1.408995056E1,4.617000103E0
4.067340122E0,1.180050015E0,-1.426200104E1,4.708050251E0
4.069843120E0,1.501050115E0,-1.432005024E1,4.672049999E0
4.072345661E0,1.704000115E0,-1.431195068E1,4.605000019E0
4.074848659E0,1.876950145E0,-1.431495094E1,4.258049965E0
4.077351430E0,1.876950145E0,-1.432200050E1,3.715950251E0
4.079854213E0,1.879050136E0,-1.417395115E1,3.115050077E0
4.082356982E0,1.831050038E0,-1.390500069E1,2.607000113E0
4.084859751E0,1.836000085E0,-1.363005066E1,2.109000206E0
4.087362596E0,1.728000045E0,-1.325100040E1,1.648950100E0
4.089865381E0,1.600950122E0,-1.286805058E1,1.006950021E0
4.092368150E0,1.446000099E0,-1.258605099E1,3.390000165E-1
4.094870919E0,1.288050056E0,-1.243500042E1,-3.780000210E-1
4.097373689E0,1.161000013E0,-1.227705097E1,-1.141950011E0
4.099876458E0,9.600000381E-1,-1.209495068E1,-1.992000103E0
4.102379227E0,6.430500150E-1,-1.191705036E1,-2.907000065E0
4.104881996E0,3.109500110E-1,-1.176900101E1,-3.916050196E0
4.107384994E0,1.260000020E-1,-1.178100014E1,-4.810950279E0
4.109887766E0,-5.700000376E-2,-1.186695099E1,-5.631000042E0
4.112390535E0,-2.490000129E-1,-1.192200089E1,-6.351000309E0
4.114893319E0,-3.850500286E-1,-1.203495026E1,-6.909000397E0
4.117396088E0,-5.029500127E-1,-1.224600029E1,-7.297050476E0
4.119898927E0,-5.700000525E-1,-1.243200016E1,-7.551000595E0
4.122401699E0,-6.700500250E-1,-1.260495090E1,-7.626000404E0
4.124904468E0,-8.260500431E-1,-1.278900051E1,-7.621050358E0
4.127407237E0,-1.006049991E0,-1.301700020E1,-7.471950531E0
4.129910020E0,-1.200000048E0,-1.324200058E1,-7.350000381E0
4.132412790E0,-1.450950027E0,-1.343295097E1,-7.252050400E0
4.134915559E0,-1.627950072E0,-1.359405041E1,-7.173000336E0
4.137418347E0,-1.866000056E0,-1.372800064E1,-7.126950264E0
4.139921116E0,-2.095050097E0,-1.383600044E1,-7.197000504E0
4.142424114E0,-2.206050158E0,-1.388400078E1,-7.432050228E0
4.144926886E0,-2.305950165E0,-1.392405033E1,-7.563000202E0
4.147429646E0,-2.400000095E0,-1.390500069E1,-7.741050243E0
4.149932415E0,-2.347050190E0,-1.398900032E1,-7.884000301E0
4.152435184E0,-2.242050171E0,-1.406100082E1,-7.992000580E0
4.154938028E0,-2.206050158E0,-1.412295055E1,-7.924950600E0
4.157440800E0,-1.918050051E0,-1.420500088E1,-7.591950417E0
4.159943569E0,-1.806000113E0,-1.427700043E1,-7.333050251E0
4.162446338E0,-1.612050056E0,-1.449900055E1,-6.829950333E0
4.164949107E0,-1.264050007E0,-1.469595051E1,-6.342000484E0
4.167451877E0,-1.305000067E0,-1.486095047E1,-5.793000221E0
4.169954646E0,-1.159050107E0,-1.504305077E1,-5.130000114E0
4.172457415E0,-1.021950006E0,-1.515795040E1,-4.351950169E0
4.174960398E0,-9.840000272E-1,-1.525800037E1,-3.573000193E0
4.177463169E0,-8.599500656E-1,-1.542600060E1,-2.776050091E0
4.179965939E0,-4.860000312E-1,-1.554795074E1,-2.068950176E0
4.182468694E0,2.100000158E-2,-1.567800045E1,-1.470000029E0
4.184971538E0,-7.200000435E-2,-1.579305077E1,-6.270000339E-1
4.187474232E0,-4.260000288E-1,-1.575405121E1,6.580500603E-1
4.189976999E0,-5.080500245E-1,-1.579695034E1,1.876950145E0
4.192479865E0,-5.599500537E-1,-1.567500114E1,2.386950016E0
4.194982559E0,-7.540500164E-1,-1.546695042E1,2.602950096E0
4.197485403E0,-9.840000272E-1,-1.546395111E1,3.085950136E0
4.199988164E0,-1.101000071E0,-1.528005028E1,3.742950201E0
4.202490934E0,-1.066050053E0,-1.504500103E1,4.399050236E0
4.204993713E0,-8.140500188E-1,-1.486095047E1,4.794000149E0
4.207496711E0,-1.252050042E0,-1.476495075E1,5.266050339E0
4.209999482E0,-1.636050105E0,-1.462905025E1,6.099000454E0
4.212502251E0,-1.434000015E0,-1.447095108E1,6.400950432E0
4.215005021E0,-1.438950062E0,-1.429995060E1,6.472950459E0
4.217507790E0,-1.900950074E0,-1.412595081E1,6.873000145E0
4.220010559E0,-2.443050146E0,-1.400595093E1,7.417050362E0
4.222513328E0,-3.130050182E0,-1.389600086E1,8.146950722E0
4.225016097E0,-3.544050217E0,-1.364400101E1,8.800950050E0
4.227518942E0,-4.267950058E0,-1.353405094E1,9.117000580E0
4.230021713E0,-5.872050285E0,-1.394595051E1,1.002000046E1
4.232524482E0,-7.534950256E0,-1.415895081E1,1.072605038E1
4.235027251E0,-8.857050896E0,-1.438200092E1,1.119105053E1
4.237530016E0,-9.690000534E0,-1.475100040E1,1.174395084E1
4.240033014E0,-1.059495068E1,-1.502595043E1,1.204095078E1
4.242535785E0,-1.119600010E1,-1.520100117E1,1.211100101E1
4.245038559E0,-1.156500053E1,-1.553205109E1,1.230705070E1
4.247541328E0,-1.205205059E1,-1.603395081E1,1.236000061E1
4.250044098E0,-1.143105030E1,-1.648200035E1,1.207995033E1
4.252546843E0,-1.080105019E1,-1.667205048E1,1.131105042E1
4.255049612E0,-1.018095016E1,-1.664805031E1,1.018500042E1
4.257552456E0,-1.020495033E1,-1.613504982E1,9.553050041E0
4.260055227E0,-1.159395027E1,-1.514400101E1,1.002705002E1
4.262557997E0,-1.174005032E1,-1.556295109E1,1.007295036E1
4.265060766E0,-1.165905094E1,-1.617600060E1,9.490950584E0
4.267563764E0,-1.230105019E1,-1.617794991E1,8.806050301E0
4.270066535E0,-1.313400078E1,-1.555800056E1,7.696950436E0
4.272569304E0,-1.435305023E1,-1.467900085E1,6.277050495E0
4.275072074E0,-1.583595085E1,-1.374000072E1,4.561950207E0
4.277574843E0,-1.662104988E1,-1.286595058E1,2.293950081E0
4.280077612E0,-1.664505005E1,-1.193400097E1,-8.449500203E-1
4.282580371E0,-1.598700047E1,-1.114395046E1,-5.745000362E0
4.285083140E0,-1.451100063E1,-1.061895084E1,-1.233900070E1
4.287585985E0,-1.245105076E1,-1.015005016E1,-1.887705040E1
4.290088785E0,-1.182900047E1,-1.004895020E1,-1.834605026E1
4.292591554E0,-1.190805054E1,-9.907950401E0,-1.585500050E1
4.295094323E0,-1.123695087E1,-9.087000847E0,-1.472700024E1
4.297597088E0,-1.116300011E1,-8.512050629E0,-1.299495029E1
4.300099857E0,-1.144305038E1,-8.655000687E0,-1.111305046E1
4.302602855E0,-1.086405087E1,-8.368050575E0,-9.457950592E0
4.305105371E0,-1.029105091E1,-8.017950058E0,-7.711950302E0
4.307608369E0,-9.817050934E0,-7.669050217E0,-6.130950451E0
4.310111141E0,-9.520050049E0,-7.458000183E0,-4.543050289E0
4.312613910E0,-8.959950447E0,-7.341000557E0,-3.175950050E0
4.315116754E0,-8.277000427E0,-7.245000362E0,-1.648050070E0
4.317619525E0,-7.918050289E0,-7.264050484E0,-9.105000645E-2
4.320122294E0,-7.906050205E0,-7.069950104E0,1.003050089E0
4.322625064E0,-7.870050430E0,-6.571950436E0,1.888950109E0
4.325127833E0,-7.836000443E0,-6.232050419E0,2.578950167E0
4.327630602E0,-7.827000141E0,-6.034950256E0,3.127050161E0
4.330133371E0,-7.351950169E0,-5.908050060E0,3.438000202E0
4.332636140E0,-6.841950417E0,-5.833950043E0,3.834000111E0
4.335139139E0,-6.531000137E0,-5.773950100E0,4.140000343E0
4.337641896E0,-6.346950531E0,-5.592000484E0,4.565999985E0
4.340144665E0,-6.385050297E0,-5.451000214E0,4.818000317E0
4.342647434E0,-6.402000427E0,-5.511000156E0,4.954050064E0
4.345150284E0,-6.138000488E0,-4.902000427E0,4.890000343E0
4.347652978E0,-5.719050407E0,-4.609950066E0,4.890000343E0
4.350155822E0,-5.583000183E0,-4.486050129E0,5.092950344E0
4.352658602E0,-5.245050430E0,-4.477950096E0,5.113050461E0
4.355161372E0,-4.876049995E0,-4.299000263E0,5.650950432E0
4.357664141E0,-4.102050304E0,-4.225049973E0,6.118050098E0
4.360166910E0,-3.681000233E0,-4.192950249E0,6.363000393E0
4.362669679E0,-3.391050100E0,-4.291950226E0,6.801000118E0
4.365172677E0,-3.018000126E0,-4.404000282E0,7.363950253E0
4.367675448E0,-2.710950136E0,-4.534049988E0,7.564950466E0
4.370178218E0,-1.846050143E0,-4.668000221E0,8.427000046E0
4.372680987E0,-6.195000187E-2,-5.046000004E0,8.644950867E0
4.375183708E0,2.088000059E0,-5.629950047E0,8.104050636E0
4.377686477E0,4.248000145E0,-6.130950451E0,6.997050285E0
4.380189327E0,6.055950165E0,-6.610050201E0,5.617950439E0
4.382692098E0,7.005000114E0,-7.186950207E0,4.150050163E0
4.385194867E0,7.321050167E0,-7.438950539E0,2.907000065E0
4.387697636E0,7.539000511E0,-7.660950184E0,1.513050079E0
4.390200396E0,7.338000298E0,-7.819950581E0,9.190500379E-1
4.392703394E0,6.502050400E0,-7.657050133E0,1.069950104E0
4.395206180E0,5.307000160E0,-7.329000473E0,1.017000079E0
4.397708949E0,3.426000118E0,-6.715050220E0,1.098000050E0
4.400211718E0,1.018950105E0,-6.070950508E0,1.378950119E0
4.402714472E0,-1.051050067E0,-5.422050476E0,1.534050107E0
4.405217242E0,-2.328000069E0,-4.972050190E0,1.788000107E0
4.407720011E0,-2.902950048E0,-4.696050167E0,2.128050089E0
4.410222855E0,-2.995950222E0,-4.495050430E0,2.494950056E0
4.412725626E0,-2.991000175E0,-4.408950329E0,2.821050167E0
4.415228396E0,-2.887950182E0,-4.396950245E0,3.043050051E0
4.417731165E0,-2.806950092E0,-4.308000088E0,3.136950254E0
4.420233934E0,-2.941050053E0,-4.201050282E0,3.216000080E0
4.422736932E0,-3.231000185E0,-3.990000248E0,3.160950184E0
4.425239473E0,-3.537000179E0,-3.784050226E0,3.141000032E0
4.427742467E0,-3.937050104E0,-3.505950212E0,3.141000032E0
4.430245238E0,-4.396950245E0,-3.276000261E0,3.199050188E0
4.432748007E0,-4.741950035E0,-3.039000034E0,3.228000164E0
4.435250771E0,-5.149050236E0,-2.788050175E0,3.343050241E0
4.437753615E0,-5.499000072E0,-2.572050095E0,3.319050074E0
4.440256382E0,-5.872050285E0,-2.383050203E0,3.405000210E0
4.442759151E0,-6.193050385E0,-2.148000002E0,3.574950218E0
4.445261920E0,-6.462000370E0,-2.019000053E0,3.637050152E0
4.447764602E0,-6.847050190E0,-1.903950095E0,3.691950083E0
4.450267372E0,-7.141950130E0,-1.710000038E0,3.610950232E0
4.452770141E0,-7.137000561E0,-1.683000088E0,3.474000216E0
4.455273139E0,-7.161000252E0,-1.666950107E0,3.438000202E0
4.457775910E0,-7.302000523E0,-1.594950080E0,3.361950159E0
4.460278679E0,-7.426950455E0,-1.542000055E0,3.334950209E0
4.462781449E0,-7.578000546E0,-1.528050065E0,3.349950075E0
4.465284293E0,-7.863000393E0,-1.456050038E0,3.430950165E0
4.467786987E0,-8.188050270E0,-1.396050096E0,3.549000263E0
4.470289831E0,-8.365950584E0,-1.324050069E0,3.586950064E0
4.472792511E0,-8.473050117E0,-1.212000012E0,3.619950056E0
4.475295356E0,-8.563950539E0,-1.135050058E0,3.490950108E0
4.477798127E0,-8.599950790E0,-1.068000078E0,3.289950132E0
4.480300891E0,-8.707950592E0,-9.190500379E-1,3.022050142E0
4.482803889E0,-8.797050476E0,-8.380500674E-1,2.521050215E0
4.485306660E0,-8.703000069E0,-8.140500188E-1,2.133000135E0
4.487809439E0,-8.368050575E0,-8.140500188E-1,1.840950131E0
4.490312208E0,-8.143050194E0,-8.050500154E-1,1.704000115E0
4.492814973E0,-7.924950600E0,-8.550000191E-1,1.510050058E0
4.495317742E0,-7.812000275E0,-8.980500698E-1,1.422000051E0
4.497820512E0,-7.803000450E0,-1.027050018E0,1.216050029E0
4.500323356E0,-7.693050385E0,-1.156949997E0,1.233000040E0
4.502826127E0,-7.467000484E0,-1.243050098E0,1.393050075E0
4.505328896E0,-7.375950336E0,-1.353000045E0,1.575000048E0
4.507831665E0,-7.318950176E0,-1.494000077E0,1.542000055E0
4.510334435E0,-7.246950150E0,-1.719000101E0,1.138950109E0
4.512837433E0,-7.186950207E0,-1.975950122E0,5.119500160E-1
4.515340001E0,-6.919050217E0,-2.272950172E0,1.639500111E-1
4.517842999E0,-6.402000427E0,-2.622000217E0,-1.720500141E-1
4.520345765E0,-5.719050407E0,-3.135000229E0,-9.630000591E-1
4.522848535E0,-5.230950356E0,-3.706950188E0,-2.284950018E0
4.525351304E0,-4.435050011E0,-4.394999981E0,-3.553950071E0
4.527854139E0,-3.576000214E0,-5.122950077E0,-4.375950336E0
4.530356910E0,-2.991000175E0,-6.033000469E0,-5.677950382E0
4.532859679E0,-2.862000227E0,-6.952950478E0,-7.348050117E0
4.535362449E0,-2.854950190E0,-8.028000832E0,-8.860950470E0
4.537865218E0,-2.433000088E0,-8.964000702E0,-1.037700081E1
4.540367987E0,-2.527050018E0,-1.034595013E1,-1.204905033E1
4.542870756E0,-2.644050121E0,-1.180995083E1,-1.419705105E1
4.545373754E0,-1.875000119E0,-1.283700085E1,-1.690095139E1
4.547876526E0,-6.460500360E-1,-1.471005058E1,-2.089605141E1
4.550379295E0,1.663950086E0,-1.732800102E1,-2.512095070E1
4.552882059E0,5.005050182E0,-2.007705116E1,-2.612700081E1
4.555384903E0,8.463000298E0,-2.295795059E1,-2.241495132E1
4.557887584E0,1.214400101E1,-2.578005028E1,-1.607295036E1
4.560390428E0,1.527705097E1,-2.834505081E1,-9.951000214E0
4.562893199E0,1.669695091E1,-3.040005112E1,-5.227950096E0
4.565395967E0,1.640295029E1,-3.169995117E1,-2.574000120E0
4.567898736E0,1.362195110E1,-3.200895309E1,-1.486950040E0
4.570401734E0,1.006500053E1,-3.061500168E1,-2.373000145E0
4.572904506E0,7.279950142E0,-2.932005119E1,-3.694950104E0
4.575407275E0,4.738950253E0,-2.820405197E1,-5.002950191E0
4.577910044E0,2.641050100E0,-2.678805161E1,-6.505050182E0
4.580412813E0,1.114950061E0,-2.564595032E1,-7.450950146E0
4.582915583E0,1.690500081E-1,-2.437905121E1,-8.458950043E0
4.585418427E0,-7.905000448E-2,-2.278395081E1,-9.349950790E0
4.587921198E0,1.309500039E-1,-2.094900131E1,-9.903000832E0
4.590423967E0,3.349500299E-1,-1.906395149E1,-1.037295055E1
4.592926737E0,4.780500233E-1,-1.700400162E1,-1.069605064E1
4.595429735E0,6.409500241E-1,-1.486800098E1,-1.080900097E1
4.597932522E0,7.579500079E-1,-1.291095066E1,-1.054995060E1
4.600435291E0,8.970000148E-1,-1.137600040E1,-1.003500080E1
4.602938036E0,1.161000013E0,-1.032000065E1,-9.440999985E0
4.605440805E0,1.242000103E0,-9.505950928E0,-8.715000153E0
4.607943570E0,1.194000006E0,-9.012000084E0,-7.846050262E0
4.610446414E0,9.810000658E-1,-8.647950172E0,-6.700950146E0
4.612949170E0,5.689499974E-1,-8.473050117E0,-5.346000195E0
4.615451939E0,2.869500220E-1,-8.833050728E0,-4.118999958E0
4.617954709E0,-9.070500135E-1,-8.979000092E0,-2.953050137E0
4.620457478E0,-2.419050217E0,-9.096000671E0,-1.963950038E0
4.622960247E0,-3.202050209E0,-9.781050682E0,-1.212000012E0
4.625463245E0,-4.258049965E0,-1.035300064E1,-7.110000253E-1
4.627966016E0,-5.391000271E0,-1.074900055E1,-5.509500504E-1
4.630468786E0,-5.949000359E0,-1.132800007E1,-6.460500360E-1
4.632971555E0,-6.234000206E0,-1.197000027E1,-7.639500499E-1
4.635474405E0,-6.687000275E0,-1.244700050E1,-9.220500588E-1
4.637977249E0,-6.730050087E0,-1.301400089E1,-1.135050058E0
4.640480020E0,-6.565050125E0,-1.347405052E1,-1.285950065E0
4.642982780E0,-6.330000401E0,-1.384095097E1,-1.444050074E0
4.645485549E0,-6.186000347E0,-1.438200092E1,-1.915950060E0
4.647988318E0,-6.265050411E0,-1.510800076E1,-3.130050182E0
4.650491316E0,-6.811050415E0,-1.565400028E1,-4.965000153E0
4.652994078E0,-7.222950459E0,-1.634805107E1,-7.096050262E0
4.655496848E0,-7.410000324E0,-1.670505142E1,-8.986050606E0
4.657999617E0,-8.047050476E0,-1.666005135E1,-1.006800079E1
4.660502386E0,-8.599950790E0,-1.614195061E1,-9.867000580E0
4.663005155E0,-8.980950356E0,-1.485405064E1,-7.999050617E0
4.665507925E0,-9.277950287E0,-1.322505093E1,-5.623050213E0
4.668010769E0,-9.457950592E0,-1.173105049E1,-3.424950123E0
4.670513540E0,-9.439050674E0,-1.020300007E1,-1.360050082E0
4.673016309E0,-9.594000816E0,-8.812950134E0,5.929500461E-1
4.675519326E0,-1.009005070E1,-7.438950539E0,2.494950056E0
4.678022097E0,-1.018800068E1,-6.250950336E0,4.768050194E0
4.680524867E0,-9.967950821E0,-5.383950233E0,7.207950115E0
4.683027636E0,-9.994050026E0,-4.804050446E0,8.242950439E0
4.685530405E0,-1.048005009E1,-4.042950153E0,8.401050568E0
4.688033174E0,-1.040895081E1,-3.529950142E0,8.308050156E0
4.690535954E0,-9.894000053E0,-3.123000145E0,8.463000298E0
4.693038798E0,-9.316050529E0,-2.919000149E0,8.932950020E0
4.695541593E0,-8.890050888E0,-2.730000019E0,9.792000771E0
4.698044362E0,-8.530950546E0,-2.586000204E0,1.093005085E1
4.700547360E0,-8.326950073E0,-2.557950020E0,1.145505047E1
4.703050131E0,-8.167050362E0,-2.527050018E0,1.147905064E1
4.705552670E0,-8.047050476E0,-2.590950012E0,1.136400032E1
4.708055668E0,-8.101950645E0,-2.782950163E0,1.111005020E1
4.710558439E0,-8.550000191E0,-3.094050169E0,1.070295048E1
4.713061208E0,-9.063000679E0,-3.529950142E0,9.949950218E0
4.715564053E0,-9.654000282E0,-4.006950378E0,9.031050682E0
4.718066824E0,-1.009995079E1,-4.512000084E0,8.242950439E0
4.720569626E0,-1.046595097E1,-4.981050014E0,7.594050407E0
4.723072395E0,-1.065495014E1,-5.527950287E0,6.978000164E0
4.725575165E0,-1.064295006E1,-6.142950058E0,6.291000366E0
4.728077949E0,-1.053105068E1,-6.771000385E0,5.580000401E0
4.730580718E0,-1.043505096E1,-7.282950401E0,4.909050465E0
4.733083716E0,-1.029405022E1,-7.810050488E0,4.489950180E0
4.735586496E0,-9.879000664E0,-8.131050110E0,4.164000034E0
4.738089265E0,-9.609000206E0,-8.385000229E0,4.047000408E0
4.740592035E0,-9.343050003E0,-8.485050201E0,4.051949978E0
4.743094870E0,-8.851950645E0,-8.538000107E0,3.984000206E0
4.745597641E0,-8.500050545E0,-8.560050011E0,3.867000103E0
4.748100410E0,-8.125950813E0,-8.386950493E0,3.916950226E0
4.750603180E0,-7.633050442E0,-8.302950859E0,4.075950146E0
4.753105949E0,-7.222950459E0,-8.301000595E0,4.118999958E0
4.755608947E0,-6.778050423E0,-8.334000587E0,4.240950108E0
4.758111718E0,-6.355950356E0,-8.361000061E0,4.332000256E0
4.760614487E0,-5.997000217E0,-8.278950691E0,4.264950275E0
4.763117257E0,-5.757000446E0,-8.281949997E0,4.180950165E0
4.765620026E0,-5.608950138E0,-8.245950699E0,4.285950184E0
4.768122799E0,-5.403000355E0,-8.253000259E0,4.444050312E0
4.770625568E0,-5.190000057E0,-8.368050575E0,4.473000050E0
4.773128441E0,-4.965000153E0,-8.524050713E0,4.498950005E0
4.775631213E0,-4.663050175E0,-8.785050392E0,4.564050198E0
4.778134006E0,-4.399050236E0,-8.962050438E0,4.648050308E0
4.780637004E0,-4.153050423E0,-9.205950737E0,4.693050385E0
4.783139544E0,-3.784050226E0,-9.795000076E0,4.236000061E0
4.785642557E0,-3.622950077E0,-1.026705074E1,3.961050272E0
4.788145329E0,-3.669000149E0,-1.062705040E1,3.613050222E0
4.790648098E0,-3.585000277E0,-1.116495037E1,3.211050034E0
4.793150867E0,-3.537000179E0,-1.164000034E1,2.943000078E0
4.795653711E0,-3.453000069E0,-1.211595058E1,2.806050062E0
4.798156482E0,-3.184950113E0,-1.259295082E1,2.791950226E0
4.800659252E0,-3.061050177E0,-1.294500065E1,2.923050165E0
4.803162021E0,-3.034050226E0,-1.322295094E1,3.213000059E0
4.805664790E0,-2.998050213E0,-1.345695019E1,3.462000132E0
4.808167559E0,-2.982000113E0,-1.363905048E1,3.589050055E0
4.810670557E0,-2.917050123E0,-1.368495083E1,3.853050232E0
4.813173329E0,-2.728050232E0,-1.380000019E1,4.075950146E0
4.815676112E0,-2.377950191E0,-1.384305096E1,4.303050041E0
4.818178881E0,-1.992000103E0,-1.370895100E1,4.588050365E0
4.820681650E0,-1.717050076E0,-1.353600025E1,4.897050381E0
4.823184510E0,-1.389000058E0,-1.335195065E1,5.208000183E0
4.825687281E0,-8.520000577E-1,-1.311705017E1,5.512950420E0
4.828190050E0,-5.410500169E-1,-1.282800102E1,6.114000320E0
4.830692833E0,-1.290000081E-1,-1.248300076E1,7.074000359E0
4.833195831E0,1.530000120E-1,-1.209705067E1,7.765950203E0
4.835698593E0,3.559500277E-1,-1.178595066E1,8.074950218E0
4.838201363E0,5.260500312E-1,-1.158195019E1,8.017950058E0
4.840704132E0,6.649500132E-1,-1.139100075E1,7.756950378E0
4.843206901E0,6.700500250E-1,-1.122495079E1,7.515000343E0
4.845709670E0,7.870500088E-1,-1.112205029E1,7.315950394E0
4.848212515E0,1.138950109E0,-1.093500042E1,7.227000237E0
4.850715286E0,1.360050082E0,-1.068195057E1,7.290000439E0
4.853218055E0,1.201950073E0,-1.047105026E1,7.159950256E0
4.855720824E0,1.003050089E0,-1.037505054E1,7.387950420E0
4.858223822E0,9.720000625E-1,-1.030605030E1,7.612950325E0
4.860726382E0,1.003050089E0,-1.015005016E1,7.459950447E0
4.863229380E0,8.539500237E-1,-1.000605011E1,7.138950348E0
4.865732155E0,4.450500309E-1,-9.889050484E0,6.916050434E0
4.868234924E0,1.930500120E-1,-9.757050514E0,6.778950214E0
4.870737768E0,2.719500065E-1,-9.666000366E0,6.619050503E0
4.873240540E0,4.300500154E-1,-9.762000084E0,6.589950085E0
4.875743300E0,3.010500073E-1,-9.799950600E0,6.384000301E0
4.878246069E0,1.050000042E-1,-9.898050308E0,5.632050037E0
4.880748838E0,-2.200500071E-1,-9.786000252E0,4.495050430E0
4.883251608E0,-6.630000472E-1,-9.645000458E0,3.642000198E0
4.885754606E0,-7.159500122E-1,-9.466950417E0,2.715000153E0
4.888257377E0,-8.430000544E-1,-9.283050537E0,1.906050086E0
4.890760146E0,-1.237950087E0,-9.120000839E0,1.422000051E0
4.893262915E0,-1.549050093E0,-9.064949989E0,1.150950074E0
4.895765685E0,-1.504050016E0,-8.872950554E0,9.190500379E-1
4.898268454E0,-1.525050044E0,-8.827950478E0,7.180500627E-1
4.900771283E0,-1.582950115E0,-8.887950897E0,5.860500336E-1
4.903274054E0,-1.726950049E0,-8.797050476E0,5.279999971E-1
4.905776809E0,-1.855950117E0,-8.722050667E0,4.350000322E-1
4.908279579E0,-2.004000187E0,-8.657999992E0,3.010500073E-1
4.910782577E0,-2.182049990E0,-8.682000160E0,2.839500010E-1
4.913285372E0,-2.380050182E0,-8.731950760E0,2.749500275E-1
4.915788166E0,-2.412000179E0,-8.742000580E0,-1.200000010E-2
4.918290935E0,-2.256000042E0,-8.739000320E0,-2.440500110E-1
4.920793705E0,-2.083050013E0,-8.551950455E0,-2.989500165E-1
4.923296549E0,-2.263050079E0,-8.380050659E0,-3.810000122E-1
4.925799325E0,-2.638950109E0,-8.305950165E0,-5.460000038E-1
4.928302094E0,-3.073050261E0,-8.260050774E0,-8.860500455E-1
4.930804863E0,-3.705000162E0,-8.131050110E0,-2.023950100E0
4.933307633E0,-4.348950386E0,-7.954050541E0,-3.544050217E0
4.935810631E0,-4.858950138E0,-8.004000664E0,-4.869000435E0
4.938313402E0,-5.098950386E0,-8.020950317E0,-6.157050133E0
4.940816171E0,-5.356950283E0,-8.041950226E0,-7.554000378E0
4.943318940E0,-5.757000446E0,-7.939050198E0,-8.730000496E0
4.945821710E0,-5.962950230E0,-8.016000748E0,-9.574950218E0
4.948324554E0,-6.217050076E0,-8.275050163E0,-9.919950485E0
4.950827238E0,-6.289050102E0,-8.473050117E0,-1.019505024E1
4.953330082E0,-5.998950481E0,-8.610000610E0,-9.939000130E0
4.955832854E0,-5.596950054E0,-8.659950256E0,-9.340050697E0
4.958335852E0,-5.218950272E0,-8.626950264E0,-8.895000458E0
4.960838628E0,-4.768050194E0,-8.515950203E0,-8.386950493E0
4.963341397E0,-4.528950214E0,-8.513999939E0,-7.651950359E0
4.965844166E0,-4.567049980E0,-8.566950798E0,-6.759000301E0
4.968346936E0,-4.107000351E0,-8.731950760E0,-6.013950348E0
4.970849700E0,-3.790950298E0,-8.835000038E0,-5.209050179E0
4.973352524E0,-3.913050175E0,-8.931000710E0,-4.276950359E0
4.975855295E0,-3.886950254E0,-9.082050323E0,-3.619050264E0
4.978358064E0,-3.625950098E0,-9.259050369E0,-3.112950087E0
4.980860834E0,-3.465000153E0,-9.343050003E0,-2.551050186E0
4.983363603E0,-3.517950058E0,-9.465000153E0,-2.122050047E0
4.985866372E0,-3.549000263E0,-9.558000565E0,-1.618950129E0
4.988369370E0,-3.436950207E0,-9.597000122E0,-1.045950055E0
4.990872141E0,-3.465000153E0,-9.640050888E0,-5.320500135E-1
4.993374911E0,-3.405000210E0,-9.646950722E0,-9.000000544E-3
4.995877755E0,-3.292950153E0,-9.574950218E0,6.460500360E-1
4.998380531E0,-3.259050131E0,-9.532050133E0,1.297050118E0
5.000883300E0,-3.142050266E0,-9.381000519E0,1.896000147E0
5.003386069E0,-2.950050116E0,-9.319050789E0,2.509050131E0
5.005888844E0,-2.862000227E0,-9.273000717E0,3.067050219E0
5.008391613E0,-2.770950079E0,-9.256950378E0,3.568050146E0
5.010894592E0,-2.718000174E0,-9.271050453E0,3.984000206E0
5.013397363E0,-2.785050154E0,-9.280950546E0,4.267050266E0
5.015900132E0,-2.847000122E0,-9.321000099E0,4.532999992E0
5.018402902E0,-3.007950068E0,-9.466950417E0,4.657050133E0
5.020905671E0,-3.207000256E0,-9.604050636E0,4.720050335E0
5.023408515E0,-3.358050108E0,-9.810000420E0,4.629000187E0
5.025911286E0,-3.441000223E0,-1.009200001E1,4.525950432E0
5.028414055E0,-3.547050238E0,-1.037295055E1,4.276950359E0
5.030916825E0,-3.633000135E0,-1.058295059E1,3.847950220E0
5.033419823E0,-3.592050076E0,-1.088805008E1,3.240000248E0
5.035922382E0,-3.685950279E0,-1.129005051E1,2.740950108E0
5.038425380E0,-3.742950201E0,-1.159200096E1,2.262000084E0
5.040928146E0,-3.669000149E0,-1.177395058E1,1.704000115E0
5.043430916E0,-3.625950098E0,-1.188105011E1,1.042950034E0
5.045933760E0,-3.549000263E0,-1.189605045E1,3.540000021E-1
5.048436536E0,-3.336000204E0,-1.189605045E1,-4.740000367E-1
5.050939305E0,-3.106050253E0,-1.189095020E1,-1.425000072E0
5.053442104E0,-2.857050180E0,-1.189800072E1,-2.361000061E0
5.055944873E0,-2.610000134E0,-1.189305019E1,-3.312000275E0
5.058447871E0,-2.488050222E0,-1.196295071E1,-4.110000134E0
5.060950642E0,-2.407050133E0,-1.202295017E1,-4.819050312E0
5.063453411E0,-2.313000202E0,-1.210200024E1,-5.407950401E0
5.065956181E0,-2.308950186E0,-1.219800091E1,-5.611050129E0
5.068459025E0,-2.272950172E0,-1.234095097E1,-5.571000099E0
5.070961719E0,-2.220000029E0,-1.242495060E1,-5.350050449E0
5.073464563E0,-2.191050053E0,-1.247805023E1,-4.890000343E0
5.075967334E0,-2.086050034E0,-1.260000038E1,-4.170000076E0
5.078470104E0,-1.923000097E0,-1.263600063E1,-3.315000057E0
5.080973102E0,-1.683000088E0,-1.263405037E1,-2.440050125E0
5.083475878E0,-1.486950040E0,-1.265700054E1,-1.482000113E0
5.085978647E0,-1.327050090E0,-1.269600105E1,-4.639500082E-1
5.088481416E0,-1.164000034E0,-1.265700054E1,4.300500154E-1
5.090984186E0,-9.390000701E-1,-1.270800018E1,1.258950114E0
5.093487000E0,-7.930500507E-1,-1.276800060E1,1.977000117E0
5.095989771E0,-6.319500208E-1,-1.284705067E1,2.566950083E0
5.098492535E0,-4.170000255E-1,-1.290900040E1,3.043050051E0
5.100995304E0,-1.990500093E-1,-1.287795067E1,3.393000126E0
5.103498074E0,-3.600000218E-2,-1.294005108E1,3.699000120E0
5.106000843E0,7.095000148E-2,-1.296195030E1,3.976950169E0
5.108503841E0,2.050500065E-1,-1.290405083E1,4.223999977E0
5.111006612E0,3.730500042E-1,-1.283505058E1,4.315050125E0
5.113509381E0,3.820500076E-1,-1.294695091E1,4.303050041E0
5.116012226E0,2.509500086E-1,-1.313895035E1,4.212000370E0
5.118514997E0,1.309500039E-1,-1.325400066E1,4.223999977E0
5.121017766E0,4.450500309E-1,-1.312695026E1,4.060950279E0
5.123520549E0,8.209500313E-1,-1.295400047E1,3.829050064E0
5.126023318E0,8.779500127E-1,-1.288305092E1,3.558000088E0
5.128526317E0,9.979500771E-1,-1.261695099E1,3.169950247E0
5.131029088E0,1.036050081E0,-1.227405071E1,2.722050190E0
5.133531862E0,1.045950055E0,-1.202295017E1,2.224050045E0
5.136034631E0,1.173000097E0,-1.168500042E1,1.660950065E0
5.138537405E0,1.156050086E0,-1.136400032E1,1.045950055E0
5.141040175E0,1.063050032E0,-1.123005009E1,3.970500231E-1
5.143543000E0,9.550500512E-1,-1.114905071E1,-2.389500141E-1
5.146045771E0,9.499500394E-1,-1.101705074E1,-9.289500713E-1
5.148548769E0,7.939500213E-1,-1.095705032E1,-1.618950129E0
5.151051540E0,5.119500160E-1,-1.092105007E1,-2.188950062E0
5.153554310E0,3.439500034E-1,-1.100295067E1,-2.730000019E0
5.156057079E0,2.839500010E-1,-1.123005009E1,-3.348000050E0
5.158559848E0,1.740000099E-1,-1.122300053E1,-3.898950100E0
5.161062617E0,0.000000000E0,-1.136700058E1,-4.394999981E0
5.163565461E0,-1.905000024E-2,-1.169895077E1,-4.905000210E0
5.166068237E0,4.200000316E-2,-1.208505058E1,-5.362050056E0
5.168571006E0,-1.120500043E-1,-1.236495018E1,-5.463000298E0
5.171073775E0,-2.230500132E-1,-1.268895054E1,-5.499000072E0
5.173576544E0,-2.700000107E-1,-1.308600044E1,-5.446050167E0
5.176079542E0,-3.259500265E-1,-1.351005077E1,-5.359950066E0
5.178582319E0,-4.549500346E-1,-1.398405075E1,-5.343000412E0
5.181085088E0,-7.639500499E-1,-1.429305077E1,-5.247000217E0
5.183587857E0,-1.066050053E0,-1.454205036E1,-5.167950153E0
5.186090701E0,-1.678950071E0,-1.451595116E1,-5.226000309E0
5.188593462E0,-1.933050036E0,-1.472895050E1,-5.496000290E0
