"Time (s)","Gyroscope x (rad/s)","Gyroscope y (rad/s)","Gyroscope z (rad/s)"
4.789917400E-2,-2.135374993E-1,5.530250072E-1,1.968999952E-1
5.039946700E-2,-2.029500008E-1,5.520625114E-1,1.979999989E-1
5.290200600E-2,-1.901624948E-1,5.478000045E-1,2.011625022E-1
5.540499600E-2,-1.794375032E-1,5.392749906E-1,2.000624985E-1
5.790776500E-2,-1.634874940E-1,5.339124799E-1,1.947000027E-1
6.041030500E-2,-1.560624987E-1,5.264874697E-1,1.958000064E-1
6.291307300E-2,-1.486375034E-1,5.137000084E-1,1.947000027E-1
6.541584700E-2,-1.443749964E-1,4.966500103E-1,1.937374920E-1
6.791861600E-2,-1.401125044E-1,4.764375091E-1,1.937374920E-1
7.042138500E-2,-1.401125044E-1,4.562250078E-1,2.022625059E-1
7.292408000E-2,-1.390125006E-1,4.424749911E-1,2.065249979E-1
7.542684700E-2,-1.380500048E-1,4.254249930E-1,2.074874938E-1
7.792961600E-2,-1.390125006E-1,3.966875076E-1,2.256374955E-1
8.043238500E-2,-1.401125044E-1,3.679499924E-1,2.512125075E-1
8.293515500E-2,-1.443749964E-1,3.444375098E-1,2.554749846E-1
8.543792400E-2,-1.432749927E-1,3.190000057E-1,2.512125075E-1
8.794045900E-2,-1.358499974E-1,3.125374913E-1,2.447499931E-1
9.044345700E-2,-1.209999993E-1,3.115749955E-1,2.352624983E-1
9.294622800E-2,-1.071124971E-1,3.051125109E-1,2.267374992E-1
9.544876700E-2,-9.226249903E-2,2.934249938E-1,2.213750035E-1
9.795154300E-2,-7.837499678E-2,2.795374990E-1,2.224749923E-1
1.004543120E-1,-6.778749824E-2,2.550624907E-1,2.299000025E-1
1.029570340E-1,-6.668750197E-2,2.348500043E-1,2.384250015E-1
1.054598030E-1,-6.242499873E-2,2.242625058E-1,2.469500005E-1
1.079625720E-1,-6.132499874E-2,2.263250053E-1,2.543750107E-1
1.104652810E-1,-6.036249921E-2,2.188999951E-1,2.714250088E-1
1.129680490E-1,-6.242499873E-2,2.094125003E-1,3.053874969E-1
1.154707980E-1,-6.132499874E-2,2.242625058E-1,3.161124885E-1
1.179735670E-1,-5.499999970E-2,2.487374991E-1,3.150124848E-1
1.204763360E-1,-5.073750019E-2,2.615250051E-1,3.075875044E-1
1.229791060E-1,-4.963750020E-2,2.700499892E-1,3.033249974E-1
1.254816460E-1,-5.816249922E-2,2.732124925E-1,3.022249937E-1
1.279844130E-1,-7.204999775E-2,2.912249863E-1,3.129499853E-1
1.304871830E-1,-9.226249903E-2,3.381125033E-1,3.416875005E-1
1.329899520E-1,-1.220999956E-1,3.679499924E-1,3.810124993E-1
1.354927210E-1,-1.603250057E-1,3.902249932E-1,4.118124843E-1
1.379954900E-1,-1.912624985E-1,4.243249893E-1,4.235000014E-1
1.404982600E-1,-2.157374918E-1,4.456374943E-1,4.235000014E-1
1.430009340E-1,-2.508000135E-1,4.658499956E-1,4.171749949E-1
1.455037010E-1,-2.795374990E-1,4.828999937E-1,4.043875039E-1
1.480064700E-1,-2.997500002E-1,5.031124949E-1,3.906374872E-1
1.505092490E-1,-3.145999908E-1,5.116375089E-1,3.724874854E-1
1.530120180E-1,-3.295874894E-1,5.200250149E-1,3.628624976E-1
1.555147870E-1,-3.433375061E-1,5.168625116E-1,3.576374948E-1
1.580175560E-1,-3.572250009E-1,5.094375014E-1,3.533749878E-1
1.605200970E-1,-3.657499850E-1,4.998124838E-1,3.522749841E-1
1.630228550E-1,-3.657499850E-1,4.998124838E-1,3.480125070E-1
1.655256240E-1,-3.603875041E-1,4.923875034E-1,3.426499963E-1
1.680283930E-1,-3.594250083E-1,4.636499882E-1,3.374249935E-1
1.705311630E-1,-3.657499850E-1,4.391750097E-1,3.267000020E-1
1.730339320E-1,-3.657499850E-1,4.126375020E-1,3.118500113E-1
1.755367010E-1,-3.572250009E-1,3.796375096E-1,2.851749957E-1
1.780393950E-1,-3.466374874E-1,3.434749842E-1,2.479124963E-1
1.805422400E-1,-3.327499926E-1,3.051125109E-1,2.085874975E-1
1.830449340E-1,-3.136374950E-1,2.710124850E-1,1.649999917E-1
1.855477010E-1,-2.912249863E-1,2.348500043E-1,1.266375035E-1
1.880504840E-1,-2.721124887E-1,1.966249943E-1,9.473749995E-2
1.905532540E-1,-2.529999912E-1,1.551000029E-1,6.710000336E-2
1.930560230E-1,-2.391124964E-1,1.241625026E-1,5.115000159E-2
1.955587780E-1,-2.285249978E-1,9.226249903E-2,3.836249933E-2
1.980613190E-1,-2.220624983E-1,6.146249920E-2,3.189999983E-2
2.005640860E-1,-2.220624983E-1,4.441250116E-2,2.667500079E-2
2.030668840E-1,-2.177999914E-1,3.904999793E-2,2.241249941E-2
2.055696530E-1,-2.231625021E-1,3.272499889E-2,3.409999982E-2
2.080724230E-1,-2.359499931E-1,3.162499890E-2,5.953750014E-2
2.105752010E-1,-2.391124964E-1,5.609999970E-2,7.768750191E-2
2.130778950E-1,-2.433750033E-1,9.116250277E-2,8.084999770E-2
2.155806620E-1,-2.476374954E-1,1.156374961E-1,8.195000142E-2
2.180834320E-1,-2.433750033E-1,1.391499937E-1,8.084999770E-2
2.205862010E-1,-2.422749996E-1,1.561999917E-1,8.084999770E-2
2.230889700E-1,-2.454375029E-1,1.645874977E-1,8.084999770E-2
2.255915110E-1,-2.444749922E-1,1.688500047E-1,8.937499672E-2
2.280945090E-1,-2.487374991E-1,1.539999992E-1,1.117874980E-1
2.305970490E-1,-2.508000135E-1,1.603250057E-1,1.297999918E-1
2.331000470E-1,-2.508000135E-1,1.764124930E-1,1.351625025E-1
2.356026060E-1,-2.411749959E-1,1.870000064E-1,1.479499936E-1
2.381053740E-1,-2.294874936E-1,1.847999990E-1,1.585374922E-1
2.406081430E-1,-2.188999951E-1,1.784749925E-1,1.533125043E-1
2.431108830E-1,-2.018499970E-1,1.678874940E-1,1.457500011E-1
2.456136520E-1,-1.816374958E-1,1.571625024E-1,1.383250058E-1
2.481163470E-1,-1.634874940E-1,1.465750039E-1,1.212750003E-1
2.506191290E-1,-1.443749964E-1,1.295250058E-1,1.117874980E-1
2.531218830E-1,-1.209999993E-1,1.007874981E-1,1.010624990E-1
2.556246520E-1,-9.968750179E-2,6.668750197E-2,8.827500045E-2
2.581274220E-1,-8.483749628E-2,3.162499890E-2,7.452499866E-2
2.606302110E-1,-6.778749824E-2,6.049999967E-3,6.806249917E-2
2.631329800E-1,-5.073750019E-2,-1.842499897E-2,5.857500061E-2
2.656355210E-1,-4.015000165E-2,-4.179999977E-2,5.321250111E-2
2.681382880E-1,-2.736249939E-2,-6.421250105E-2,5.115000159E-2
2.706410570E-1,-1.883750036E-2,-8.442500234E-2,4.578749835E-2
2.731438260E-1,-1.347499993E-2,-1.046374962E-1,4.262499884E-2
2.756465960E-1,-1.347499993E-2,-1.194875017E-1,3.932499886E-2
2.781493650E-1,-1.567500085E-2,-1.365374923E-1,4.042499885E-2
2.806521340E-1,-2.199999988E-2,-1.493249983E-1,4.262499884E-2
2.831549030E-1,-2.419999987E-2,-1.652749926E-1,4.468749836E-2
2.856575690E-1,-3.258749843E-2,-1.780624986E-1,4.468749836E-2
2.881603360E-1,-4.111250117E-2,-1.843875051E-1,4.895000160E-2
2.906631050E-1,-5.279999971E-2,-1.929125041E-1,5.004999787E-2
2.931658880E-1,-6.352499872E-2,-2.003374994E-1,5.321250111E-2
2.956686580E-1,-7.521250099E-2,-2.067999989E-1,5.857500061E-2
2.981714460E-1,-8.579999954E-2,-2.088624984E-1,6.489999592E-2
3.006739860E-1,-9.542500228E-2,-2.088624984E-1,7.136250287E-2
3.031767530E-1,-1.071124971E-1,-2.120250016E-1,7.768750191E-2
3.056795440E-1,-1.178374961E-1,-2.120250016E-1,8.621250093E-2
3.081823130E-1,-1.252624989E-1,-2.153249979E-1,9.473749995E-2
3.106850820E-1,-1.326874942E-1,-2.227499932E-1,1.021625027E-1
3.131878510E-1,-1.401125044E-1,-2.344374955E-1,1.117874980E-1
3.156905460E-1,-1.443749964E-1,-2.440624982E-1,1.255374998E-1
3.181933130E-1,-1.528999954E-1,-2.546499968E-1,1.372250021E-1
3.206960820E-1,-1.571625024E-1,-2.685374916E-1,1.564749926E-1
3.231988510E-1,-1.656875014E-1,-2.844874859E-1,1.692624986E-1
3.257016210E-1,-1.731124967E-1,-3.004375100E-1,1.798499972E-1
3.282043900E-1,-1.795749962E-1,-3.152875006E-1,1.915374994E-1
3.307069300E-1,-1.890625060E-1,-3.343999982E-1,2.149125040E-1
3.332099320E-1,-2.007499933E-1,-3.536500037E-1,2.512125075E-1
3.357127040E-1,-2.124374956E-1,-3.451249897E-1,2.745875120E-1
3.382151940E-1,-2.231625021E-1,-3.366000056E-1,2.851749957E-1
3.407179610E-1,-2.294874936E-1,-3.419624865E-1,2.916375101E-1
3.432207310E-1,-2.380124927E-1,-3.557125032E-1,2.990624905E-1
3.457235050E-1,-2.487374991E-1,-3.844499886E-1,3.246375024E-1
3.482262740E-1,-2.635875046E-1,-3.961375058E-1,3.491125107E-1
3.507290430E-1,-2.721124887E-1,-3.940750062E-1,3.607999980E-1
3.532318130E-1,-2.774749994E-1,-3.961375058E-1,3.639625013E-1
3.557345070E-1,-2.838000059E-1,-4.014999866E-1,3.661625087E-1
3.582372740E-1,-2.943874896E-1,-4.089249969E-1,3.628624976E-1
3.607400430E-1,-3.051125109E-1,-4.196499884E-1,3.511750102E-1
3.632428130E-1,-3.114374876E-1,-4.324375093E-1,3.352249861E-1
3.657455820E-1,-3.210625052E-1,-4.387624860E-1,3.172124922E-1
3.682483510E-1,-3.273875117E-1,-4.430249929E-1,3.011249900E-1
3.707508910E-1,-3.338499963E-1,-4.526500106E-1,2.851749957E-1
3.732536640E-1,-3.423750103E-1,-4.621374905E-1,2.777499855E-1
3.757566640E-1,-3.455374837E-1,-4.632374942E-1,2.756874859E-1
3.782591700E-1,-3.455374837E-1,-4.675000012E-1,2.703250051E-1
3.807619370E-1,-3.486999869E-1,-4.675000012E-1,2.671625018E-1
3.832647070E-1,-3.508999944E-1,-4.675000012E-1,2.649624944E-1
3.857674760E-1,-3.540624976E-1,-4.632374942E-1,2.575374842E-1
3.882702500E-1,-3.529624939E-1,-4.589749873E-1,2.447499931E-1
3.907730190E-1,-3.583250046E-1,-4.600749910E-1,2.276999950E-1
3.932757140E-1,-3.763374984E-1,-4.621374905E-1,2.117500007E-1
3.957784810E-1,-3.922874928E-1,-4.717625082E-1,1.989624947E-1
3.982812500E-1,-4.083749950E-1,-4.780874848E-1,1.894749999E-1
4.007840190E-1,-4.338124990E-1,-4.771249890E-1,1.852124929E-1
4.032867890E-1,-4.604874849E-1,-4.728625119E-1,1.915374994E-1
4.057895580E-1,-4.849624932E-1,-4.728625119E-1,2.149125040E-1
4.082923270E-1,-5.157625079E-1,-4.558124840E-1,2.319625020E-1
4.107950910E-1,-5.467000008E-1,-4.291374981E-1,2.299000025E-1
4.132976320E-1,-5.796999931E-1,-4.174500108E-1,2.310000062E-1
4.158003990E-1,-6.169624925E-1,-4.131875038E-1,2.267374992E-1
4.183031630E-1,-6.498249769E-1,-4.185499847E-1,2.160124928E-1
4.208059330E-1,-6.870874763E-1,-4.291374981E-1,2.074874938E-1
4.233086980E-1,-7.233874798E-1,-4.441249967E-1,2.000624985E-1
4.258114670E-1,-7.510250211E-1,-4.706625044E-1,2.117500007E-1
4.283142360E-1,-7.743999958E-1,-4.982999861E-1,2.267374992E-1
4.308170090E-1,-7.935125232E-1,-5.196124911E-1,2.256374955E-1
4.333197040E-1,-8.042374849E-1,-5.611374974E-1,2.245374918E-1
4.358224660E-1,-8.020374775E-1,-6.197124720E-1,2.330625057E-1
4.383252350E-1,-7.935125232E-1,-6.877750158E-1,2.415875047E-1
4.408280040E-1,-7.797625065E-1,-7.686250210E-1,2.606999874E-1
4.433307740E-1,-7.616124749E-1,-8.590999842E-1,2.968625128E-1
4.458335430E-1,-7.425000072E-1,-9.475125074E-1,3.383874893E-1
4.483360830E-1,-7.222874761E-1,-1.025200009E0,3.702875078E-1
4.508388510E-1,-6.892874837E-1,-1.103850007E0,3.926999867E-1
4.533418510E-1,-6.466624737E-1,-1.190062523E0,4.118124843E-1
4.558443910E-1,-6.041749716E-1,-1.289062500E0,4.384875000E-1
4.583471580E-1,-5.572875142E-1,-1.397549987E0,4.629625082E-1
4.608499570E-1,-5.115000010E-1,-1.514699936E0,4.980250001E-1
4.633527260E-1,-4.679124951E-1,-1.626350045E0,5.384500027E-1
4.658554950E-1,-4.252874851E-1,-1.717924953E0,5.788750052E-1
4.683581890E-1,-3.806000054E-1,-1.809499979E0,6.194375157E-1
4.708610340E-1,-3.316499889E-1,-1.900937438E0,6.641250253E-1
4.733637230E-1,-2.849000096E-1,-1.995674968E0,7.088124752E-1
4.758664900E-1,-2.391124964E-1,-2.091512442E0,7.523999810E-1
4.783692590E-1,-1.879625022E-1,-2.187212467E0,7.907624841E-1
4.808720290E-1,-1.358499974E-1,-2.274524927E0,8.343499899E-1
4.833747980E-1,-8.689999580E-2,-2.363899946E0,8.801375031E-1
4.858775670E-1,-4.221250117E-2,-2.454375029E0,9.279875159E-1
4.883801080E-1,1.374999993E-3,-2.543750048E0,9.780374765E-1
4.908828750E-1,4.179999977E-2,-2.635324955E0,1.031250000E0
4.933856440E-1,7.906249911E-2,-2.726762533E0,1.088724971E0
4.958884130E-1,1.152250022E-1,-2.820400000E0,1.145099998E0
4.983911820E-1,1.472624987E-1,-2.925862551E0,1.206837535E0
5.008939520E-1,1.801249981E-1,-3.043974876E0,1.267475009E0
5.033967210E-1,2.110625058E-1,-3.170612574E0,1.327012539E0
5.058994710E-1,2.270125002E-1,-3.301512480E0,1.385587454E0
5.084022400E-1,2.398000062E-1,-3.419625044E0,1.434537530E0
5.109050100E-1,2.323749959E-1,-3.520687580E0,1.478262544E0
5.134077380E-1,2.099625021E-1,-3.599474907E0,1.514425039E0
5.159105050E-1,1.843875051E-1,-3.662174940E0,1.552649975E0
5.184132450E-1,1.524875015E-1,-3.697375059E0,1.578225017E0
5.209160150E-1,1.142624989E-1,-3.722949982E0,1.587849975E0
5.234187840E-1,8.126249909E-2,-3.754849911E0,1.591012478E0
5.259215670E-1,4.716249928E-2,-3.789912462E0,1.598437548E0
5.284243360E-1,1.842499897E-2,-3.825112581E0,1.605862498E0
5.309268770E-1,-1.031249948E-2,-3.859075069E0,1.616587520E0
5.334296440E-1,-2.942499891E-2,-3.897437572E0,1.631437540E0
5.359324130E-1,-4.015000165E-2,-3.923012495E0,1.663337469E0
5.384351830E-1,-4.757500067E-2,-3.943224907E0,1.715450048E0
5.409379520E-1,-6.036249921E-2,-3.958075047E0,1.761237502E0
5.434407210E-1,-6.778749824E-2,-3.982549906E0,1.815549970E0
5.459434900E-1,-7.204999775E-2,-4.017749786E0,1.871924996E0
5.484462600E-1,-7.521250099E-2,-4.047450066E0,1.927337527E0
5.509490300E-1,-7.095000148E-2,-4.077287674E0,1.986874938E0
5.534518000E-1,-6.668750197E-2,-4.108087540E0,2.048612595E0
5.559545110E-1,-6.462500244E-2,-4.137925148E0,2.108150005E0
5.584572790E-1,-5.609999970E-2,-4.170925140E0,2.164662600E0
5.609600480E-1,-5.183750018E-2,-4.198562622E0,2.219937563E0
5.634628080E-1,-4.867500067E-2,-4.217812538E0,2.273149967E0
5.659655770E-1,-4.963750020E-2,-4.227300167E0,2.325262547E0
5.684683460E-1,-5.389999971E-2,-4.226337433E0,2.369950056E0
5.709708770E-1,-6.778749824E-2,-4.213550091E0,2.407212496E0
5.734736440E-1,-8.689999580E-2,-4.194300175E0,2.437050104E0
5.759764130E-1,-1.135749966E-1,-4.167762280E0,2.455199957E0
5.784792020E-1,-1.465750039E-1,-4.145349979E0,2.476375103E0
5.809819710E-1,-1.827374995E-1,-4.136825085E0,2.505112410E0
5.834847450E-1,-2.337500006E-1,-4.136825085E0,2.539212465E0
5.859875140E-1,-2.901250124E-1,-4.148650169E0,2.581837416E0
5.884902840E-1,-3.508999944E-1,-4.161300182E0,2.626524925E0
5.909930540E-1,-4.061749876E-1,-4.166662693E0,2.672174931E0
5.934958240E-1,-4.604874849E-1,-4.163499832E0,2.717962503E0
5.959985160E-1,-5.105375051E-1,-4.154974937E0,2.762650013E0
5.985012840E-1,-5.509625077E-1,-4.140124798E0,2.803075075E0
6.010040530E-1,-5.839625001E-1,-4.116612434E0,2.842537403E0
6.035068220E-1,-6.115999818E-1,-4.095437527E0,2.880762577E0
6.060095910E-1,-6.329125166E-1,-4.075087547E0,2.917062521E0
6.085123560E-1,-6.466624737E-1,-4.054874897E0,2.956387520E0
6.110151250E-1,-6.531249881E-1,-4.043187618E0,2.994750023E0
6.135176800E-1,-6.594499946E-1,-4.036862373E0,3.034075022E0
6.160206780E-1,-6.562874913E-1,-4.038925171E0,3.075599909E0
6.185232190E-1,-6.381375194E-1,-4.048550129E0,3.122349977E0
6.210260000E-1,-6.115999818E-1,-4.067662716E0,3.163874865E0
6.235287690E-1,-5.754374862E-1,-4.096399784E0,3.215987444E0
6.260315380E-1,-5.328124762E-1,-4.125137329E0,3.272500038E0
6.285342940E-1,-4.849624932E-1,-4.158137321E0,3.311825037E0
6.310369880E-1,-4.285874963E-1,-4.192237377E0,3.349087477E0
6.335398320E-1,-3.668499887E-1,-4.226337433E0,3.393774986E0
6.360426030E-1,-3.029125035E-1,-4.266762257E0,3.440662384E0
6.385452960E-1,-2.411749959E-1,-4.306087494E0,3.487412453E0
6.410480630E-1,-1.816374958E-1,-4.337987423E0,3.540625095E0
6.435508320E-1,-1.241625026E-1,-4.366724968E0,3.602362394E0
6.460536010E-1,-7.095000148E-2,-4.381712437E0,3.658737421E0
6.485563710E-1,-2.419999987E-2,-4.389137268E0,3.707687378E0
6.510591400E-1,2.062499896E-2,-4.381712437E0,3.753474951E0
6.535619090E-1,5.348749831E-2,-4.358200073E0,3.799262524E0
6.560644450E-1,8.016250283E-2,-4.326300144E0,3.843950033E0
6.585672120E-1,9.501250088E-2,-4.283675194E0,3.888637543E0
6.610699910E-1,1.057374999E-1,-4.231562614E0,3.937587500E0
6.635727600E-1,1.131625026E-1,-4.165562630E0,3.985437393E0
6.660755300E-1,1.099999994E-1,-4.090075016E0,4.032324791E0
6.685783040E-1,9.721250087E-2,-4.004962444E0,4.080174923E0
6.710810730E-1,8.758749813E-2,-3.910224915E0,4.125962257E0
6.735837670E-1,7.053750008E-2,-3.810124874E0,4.171750069E0
6.760866500E-1,5.142499879E-2,-3.704799891E0,4.216437340E0
6.785894210E-1,2.901249938E-2,-3.602637529E0,4.253699780E0
6.810921900E-1,8.799999952E-3,-3.504737377E0,4.280237675E0
6.835948820E-1,-1.347499993E-2,-3.411099911E0,4.303612709E0
6.860976500E-1,-2.942499891E-2,-3.334512472E0,4.319562435E0
6.886004190E-1,-4.015000165E-2,-3.268512487E0,4.329187393E0
6.911031880E-1,-4.221250117E-2,-3.220662594E0,4.337712288E0
6.936059570E-1,-4.015000165E-2,-3.189724922E0,4.348299980E0
6.961087260E-1,-3.478749841E-2,-3.168412447E0,4.354762554E0
6.986112670E-1,-1.993750036E-2,-3.156724930E0,4.346237659E0
7.011140390E-1,6.737499963E-3,-3.159887552E0,4.330287457E0
7.036168080E-1,4.606249928E-2,-3.175837517E0,4.313237667E0
7.061198080E-1,9.184999764E-2,-3.191925049E0,4.294125080E0
7.086223580E-1,1.430000067E-1,-3.223824978E0,4.287662506E0
7.111251250E-1,1.993750036E-1,-3.255724907E0,4.286699772E0
7.136278940E-1,2.600125074E-1,-3.265349865E0,4.268549919E0
7.161306640E-1,3.302749991E-1,-3.281300068E0,4.237750053E0
7.186334330E-1,4.036999941E-1,-3.302474976E0,4.204750061E0
7.211361270E-1,4.782249928E-1,-3.326950073E0,4.172712326E0
7.236389810E-1,5.473874807E-1,-3.343037367E0,4.145074844E0
7.261416760E-1,6.133875251E-1,-3.351424932E0,4.118537426E0
7.286444430E-1,6.643999815E-1,-3.343037367E0,4.104650021E0
7.311472300E-1,7.165125012E-1,-3.292987585E0,4.086500168E0
7.336499990E-1,7.580375075E-1,-3.222724915E0,4.066287518E0
7.361527690E-1,7.910374999E-1,-3.138712406E0,4.050337315E0
7.386555380E-1,8.186749816E-1,-3.044937372E0,4.034387589E0
7.411583070E-1,8.314625025E-1,-2.944974899E0,4.024899960E0
7.436608480E-1,8.368250132E-1,-2.836349964E0,4.017337322E0
7.461636150E-1,8.346250057E-1,-2.722500086E0,4.013074875E0
7.486663840E-1,8.229374886E-1,-2.609750032E0,4.009912491E0
7.511691530E-1,8.101499677E-1,-2.496999979E0,4.011012554E0
7.536719220E-1,7.932375073E-1,-2.385212421E0,4.007850170E0
7.561746920E-1,7.739874721E-1,-2.273425102E0,4.000424862E0
7.586774610E-1,7.506124973E-1,-2.164937496E0,3.989700079E0
7.611802300E-1,7.293000221E-1,-2.065937519E0,3.974849939E0
7.636829990E-1,7.079874873E-1,-1.980824947E0,3.957799911E0
7.661857840E-1,6.857125163E-1,-1.905200005E0,3.941849947E0
7.686885540E-1,6.664624810E-1,-1.840299964E0,3.923700094E0
7.711912470E-1,6.558749676E-1,-1.797812462E0,3.900325060E0
7.736940090E-1,6.462500095E-1,-1.773337483E0,3.878050089E0
7.761967790E-1,6.495500207E-1,-1.764812469E0,3.856737375E0
7.786995480E-1,6.538124681E-1,-1.770037532E0,3.823737383E0
7.812023170E-1,6.718249917E-1,-1.790249944E0,3.785374880E0
7.837050860E-1,7.016624808E-1,-1.822287440E0,3.749212503E0
7.862078560E-1,7.431874871E-1,-1.864774942E0,3.723637581E0
7.887103960E-1,7.921375036E-1,-1.907400012E0,3.691737413E0
7.912131630E-1,8.496124744E-1,-1.944662452E0,3.653374910E0
7.937159330E-1,9.187750220E-1,-1.976562500E0,3.596999884E0
7.962187020E-1,9.953625202E-1,-2.002137423E0,3.523575068E0
7.987214380E-1,1.078412533E0,-2.024412394E0,3.455512524E0
8.012242070E-1,1.165587544E0,-2.051087379E0,3.384150028E0
8.037269760E-1,1.249737501E0,-2.079824924E0,3.317187548E0
8.062297550E-1,1.330587506E0,-2.105262518E0,3.256550074E0
8.087324490E-1,1.413637519E0,-2.115987539E0,3.193712473E0
8.112352790E-1,1.494487524E0,-2.112687588E0,3.133074999E0
8.137380500E-1,1.569012523E0,-2.095774889E0,3.071337461E0
8.162407430E-1,1.635012507E0,-2.069099903E0,3.009599924E0
8.187435100E-1,1.691387534E0,-2.037199974E0,2.951025009E0
8.212462790E-1,1.727550030E0,-1.994575024E0,2.891487598E0
8.237490480E-1,1.752025008E0,-1.940400004E0,2.831812382E0
8.262518180E-1,1.758350015E0,-1.869037509E0,2.773375034E0
8.287545870E-1,1.749962449E0,-1.780762434E0,2.719062567E0
8.312573560E-1,1.725350022E0,-1.673237443E0,2.665849924E0
8.337599020E-1,1.690287471E0,-1.547700047E0,2.610574961E0
8.362626690E-1,1.645599961E0,-1.411437511E0,2.559424877E0
8.387654280E-1,1.587025046E0,-1.262387514E0,2.503050089E0
8.412681970E-1,1.525287509E0,-1.110312462E0,2.447637558E0
8.437709670E-1,1.459424973E0,-9.506750107E-1,2.389199972E0
8.462737360E-1,1.383800030E0,-7.910374999E-1,2.330625057E0
8.487765050E-1,1.305012465E0,-6.419875026E-1,2.267787457E0
8.512792740E-1,1.223062515E0,-4.993999898E-1,2.200824976E0
8.537820390E-1,1.132587552E0,-3.536500037E-1,2.129462481E0
8.562847330E-1,1.031525016E0,-1.971749961E-1,2.054937601E0
8.587875770E-1,9.208375216E-1,-6.311249733E-2,1.979449987E0
8.612903480E-1,8.134499788E-1,6.036249921E-2,1.908087492E0
8.637930410E-1,7.196750045E-1,1.688500047E-1,1.838925004E0
8.662958080E-1,6.473500133E-1,2.635875046E-1,1.766600013E0
8.687985770E-1,5.909749866E-1,3.444375098E-1,1.697437525E0
8.713013460E-1,5.483499765E-1,4.083749950E-1,1.628275037E0
8.738041160E-1,5.249750018E-1,4.456374943E-1,1.562274933E0
8.763068800E-1,5.229125023E-1,4.551250041E-1,1.494212508E0
8.788096490E-1,5.388625264E-1,4.413749874E-1,1.428212523E0
8.813124180E-1,5.676000118E-1,4.232249856E-1,1.354787469E0
8.838149450E-1,6.048625112E-1,3.955875039E-1,1.283424973E0
8.863177120E-1,6.505125165E-1,3.583250046E-1,1.211099982E0
8.888204810E-1,6.984999776E-1,3.179000020E-1,1.140837550E0
8.913232450E-1,7.484124899E-1,2.689499855E-1,1.069474936E0
8.938260150E-1,8.006625175E-1,2.103749961E-1,9.982500076E-1
8.963287790E-1,8.570374846E-1,1.434125006E-1,9.216625094E-1
8.988315480E-1,9.028249979E-1,6.462500244E-2,8.417750001E-1
9.013343170E-1,9.506750107E-1,-2.474999987E-2,7.566624880E-1
9.038370630E-1,9.964625239E-1,-1.109625027E-1,6.693499684E-1
9.063398330E-1,1.040050030E0,-1.993750036E-1,5.821750164E-1
9.088426030E-1,1.084737539E0,-2.844874859E-1,4.948624969E-1
9.113452950E-1,1.125162482E0,-3.642374873E-1,4.097499847E-1
9.138480630E-1,1.168887496E0,-4.387624860E-1,3.235374987E-1
9.163508320E-1,1.210274935E0,-5.090249777E-1,2.404875010E-1
9.188536010E-1,1.247537494E0,-5.750250220E-1,1.564749926E-1
9.213563700E-1,1.282737494E0,-6.377249956E-1,6.916250288E-2
9.238591400E-1,1.315737486E0,-6.920375228E-1,-2.131249942E-2
9.263619090E-1,1.342275023E0,-7.484124899E-1,-1.160499975E-1
9.288646780E-1,1.361524940E0,-8.058875203E-1,-2.096875012E-1
9.313674470E-1,1.382699966E0,-8.548374772E-1,-3.107500076E-1
9.338699880E-1,1.395487547E0,-9.017249942E-1,-4.160749912E-1
9.363729860E-1,1.399749994E0,-9.336249828E-1,-5.246999860E-1
9.388757570E-1,1.396587491E0,-9.634624720E-1,-6.395124793E-1
9.413782950E-1,1.383800030E0,-9.879375100E-1,-7.609249949E-1
9.438810680E-1,1.361524940E0,-1.002787471E0,-8.864625096E-1
9.463838370E-1,1.329487443E0,-1.012412548E0,-1.018462539E0
9.488866060E-1,1.291262507E0,-1.023000002E0,-1.154587507E0
9.513893510E-1,1.244374990E0,-1.031525016E0,-1.297312498E0
9.538921210E-1,1.189100027E0,-1.040050030E0,-1.451587439E0
9.563948950E-1,1.126262546E0,-1.052837491E0,-1.605862498E0
9.588976640E-1,1.040050030E0,-1.043212533E0,-1.754912496E0
9.614003580E-1,9.241374731E-1,-9.931625128E-1,-1.886775017E0
9.639031260E-1,7.548750043E-1,-8.952624798E-1,-1.991137505E0
9.664058950E-1,5.324000120E-1,-7.431874871E-1,-2.065662384E0
9.689086640E-1,2.663374841E-1,-5.643000007E-1,-2.114612579E0
9.714114330E-1,-3.795000166E-2,-3.642374873E-1,-2.133724928E0
9.739142030E-1,-3.572250009E-1,-1.556500047E-1,-2.132625103E0
9.764169720E-1,-6.711375117E-1,6.462500244E-2,-2.126300097E0
9.789197500E-1,-9.787250161E-1,2.902624905E-1,-2.111312389E0
9.814222910E-1,-1.259637475E0,4.668124914E-1,-2.041187525E0
9.839252890E-1,-1.511950016E0,6.935499907E-1,-1.977249980E0
9.864280790E-1,-1.739650011E0,8.958125114E-1,-1.958137512E0
9.889308480E-1,-1.931187510E0,1.048987508E0,-1.935724974E0
9.914333860E-1,-2.076937437E0,1.184149981E0,-1.914549947E0
9.939361540E-1,-2.188724995E0,1.279987454E0,-1.897500038E0
9.964389230E-1,-2.257887602E0,1.351212502E0,-1.885812521E0
9.989416920E-1,-2.295150042E0,1.398100019E0,-1.899562478E0
1.001444466E0,-2.306837559E0,1.410887480E0,-1.931462526E0
1.003947236E0,-2.289787531E0,1.388474941E0,-1.976287484E0
1.006450005E0,-2.248399973E0,1.345849991E0,-2.027299881E0
1.008952774E0,-2.192987442E0,1.276687503E0,-2.097562551E0
1.011455468E0,-2.124924898E0,1.193774939E0,-2.173049927E0
1.013958236E0,-2.052462578E0,1.096837521E0,-2.244412422E0
1.016461005E0,-1.981237531E0,9.926124811E-1,-2.308212519E0
1.018963774E0,-1.902449965E0,8.861874938E-1,-2.355099916E0
1.021466543E0,-1.826962471E0,7.808625102E-1,-2.406112432E0
1.023969313E0,-1.751337528E0,6.679750085E-1,-2.472112417E0
1.026472072E0,-1.668287516E0,5.296499729E-1,-2.527524948E0
1.028974841E0,-1.573687434E0,3.636874855E-1,-2.563687563E0
1.031477596E0,-1.470425010E0,1.847999990E-1,-2.579637527E0
1.033980366E0,-1.354375005E0,1.031249948E-2,-2.587062597E0
1.036483150E0,-1.235162497E0,-1.567499936E-1,-2.575375080E0
1.038985920E0,-1.127774954E0,-2.993375063E-1,-2.536050081E0
1.041488459E0,-1.041562438E0,-3.918749988E-1,-2.504012585E0
1.043991226E0,-9.926124811E-1,-4.504500031E-1,-2.497687578E0
1.046493995E0,-9.627749920E-1,-5.142499804E-1,-2.543474913E0
1.048996764E0,-9.244124889E-1,-6.037625074E-1,-2.636012554E0
1.051499533E0,-8.850874901E-1,-6.899750233E-1,-2.749862432E0
1.054002303E0,-8.446624875E-1,-7.686250210E-1,-2.885025024E0
1.056505072E0,-7.882875204E-1,-8.494749665E-1,-3.031874895E0
1.059007841E0,-7.414000034E-1,-8.846749663E-1,-3.152187586E0
1.061510606E0,-7.137625217E-1,-8.857749701E-1,-3.240462542E0
1.064013376E0,-6.924499869E-1,-8.601999879E-1,-3.308662415E0
1.066516146E0,-6.785625219E-1,-8.133124709E-1,-3.375624895E0
1.069018916E0,-6.701750159E-1,-7.495124936E-1,-3.440525055E0
1.071521689E0,-6.509249806E-1,-6.899750233E-1,-3.504462481E0
1.074024387E0,-6.307125092E-1,-6.419875026E-1,-3.565099955E0
1.076527154E0,-6.019750237E-1,-5.941374898E-1,-3.627937555E0
1.079029923E0,-5.689749718E-1,-5.472499728E-1,-3.681012392E0
1.081532692E0,-5.328124762E-1,-4.856500030E-1,-3.718275070E0
1.084035462E0,-4.912874997E-1,-4.248749912E-1,-3.740687370E0
1.086538207E0,-4.445374906E-1,-3.749625087E-1,-3.754437447E0
1.089040976E0,-3.763374984E-1,-3.504875004E-1,-3.767225027E0
1.091543735E0,-2.795374990E-1,-3.536500037E-1,-3.787437439E0
1.094046276E0,-1.614249945E-1,-3.599750102E-1,-3.811912537E0
1.096549043E0,-4.221250117E-2,-3.514499962E-1,-3.806687593E0
1.099051812E0,5.884999782E-2,-3.163875043E-1,-3.770524979E0
1.101554812E0,1.450625062E-1,-3.121249974E-1,-3.719374895E0
1.104057353E0,2.216500044E-1,-3.302749991E-1,-3.673587561E0
1.106560120E0,3.036000133E-1,-3.610749841E-1,-3.651312590E0
1.109062889E0,4.164874852E-1,-3.844499886E-1,-3.643887520E0
1.111565658E0,5.366625190E-1,-4.057624936E-1,-3.633162498E0
1.114068428E0,6.334624887E-1,-4.366999865E-1,-3.615149975E0
1.116571197E0,6.994624734E-1,-4.558124840E-1,-3.587374926E0
1.119073966E0,7.378249764E-1,-4.728625119E-1,-3.543787479E0
1.121576774E0,7.643625140E-1,-4.962374866E-1,-3.510787487E0
1.124079544E0,7.899374962E-1,-5.101249814E-1,-3.505424976E0
1.126582238E0,8.175749779E-1,-5.292375088E-1,-3.508724928E0
1.129085005E0,8.377875090E-1,-5.366625190E-1,-3.501162529E0
1.131587774E0,8.442500234E-1,-5.121874809E-1,-3.478887558E0
1.134090544E0,8.559374809E-1,-4.695625007E-1,-3.445887566E0
1.136593294E0,8.718875051E-1,-4.313375056E-1,-3.402299881E0
1.139096063E0,8.783500195E-1,-4.068624973E-1,-3.353349924E0
1.141598832E0,8.793125153E-1,-3.823874891E-1,-3.292574883E0
1.144101602E0,8.740875125E-1,-3.493874967E-1,-3.224512577E0
1.146604372E0,8.857749701E-1,-3.141874969E-1,-3.142562389E0
1.149107142E0,9.165750146E-1,-2.759625018E-1,-3.054287434E0
1.151609681E0,9.612625241E-1,-2.609750032E-1,-2.968075037E0
1.154112679E0,1.014474988E0,-2.631750107E-1,-2.892450094E0
1.156615450E0,1.074149966E0,-2.674374878E-1,-2.823287487E0
1.159118219E0,1.131624937E0,-2.791250050E-1,-2.760587454E0
1.161620758E0,1.175212502E0,-2.972750068E-1,-2.703112602E0
1.164123525E0,1.212474942E0,-3.110249937E-1,-2.648799896E0
1.166626293E0,1.236950040E0,-3.067624867E-1,-2.601912498E0
1.169129062E0,1.257162452E0,-2.865499854E-1,-2.552000046E0
1.171631831E0,1.271049976E0,-2.535499930E-1,-2.476375103E0
1.174134635E0,1.271049976E0,-2.227499932E-1,-2.395524979E0
1.176637404E0,1.271049976E0,-1.929125041E-1,-2.317837477E0
1.179140183E0,1.260324955E0,-1.588124931E-1,-2.242212534E0
1.181642952E0,1.243275046E0,-1.259499937E-1,-2.167824984E0
1.184145717E0,1.216737509E0,-7.699999958E-2,-2.083674908E0
1.186648411E0,1.185799956E0,-3.011249937E-2,-1.996500015E0
1.189151255E0,1.156100035E0,1.031249948E-2,-1.920874953E0
1.191654026E0,1.127362490E0,4.441250116E-2,-1.847450018E0
1.194156719E0,1.100687504E0,9.019999951E-2,-1.776087523E0
1.196659486E0,1.071949959E0,1.454750001E-1,-1.694137454E0
1.199162255E0,1.040050030E0,1.901624948E-1,-1.612187505E0
1.201665024E0,9.974250197E-1,2.253624946E-1,-1.532437444E0
1.204167794E0,9.453125000E-1,2.550624907E-1,-1.467537522E0
1.206670563E0,8.900374770E-1,2.923249900E-1,-1.413224936E0
1.209173332E0,8.260999918E-1,3.423750103E-1,-1.356850028E0
1.211676101E0,7.474499941E-1,4.104374945E-1,-1.304737449E0
1.214178856E0,6.621999741E-1,4.945875108E-1,-1.265275002E0
1.216681396E0,5.813499689E-1,5.669124722E-1,-1.236537457E0
1.219184168E0,5.079249740E-1,6.169624925E-1,-1.216325045E0
1.221686937E0,4.663999975E-1,6.221874952E-1,-1.211099982E0
1.224189707E0,4.589749873E-1,5.999125242E-1,-1.205737472E0
1.226692707E0,4.802874923E-1,5.754374862E-1,-1.191849947E0
1.229195247E0,5.260750055E-1,5.318499804E-1,-1.169574976E0
1.231698014E0,5.718625188E-1,4.817999899E-1,-1.136574984E0
1.234200784E0,6.197124720E-1,4.413749874E-1,-1.087625027E0
1.236703553E0,6.621999741E-1,4.094749987E-1,-1.030149937E0
1.239206322E0,6.920375228E-1,3.849999905E-1,-9.598875046E-1
1.241709091E0,7.048249841E-1,3.583250046E-1,-8.790374994E-1
1.244211871E0,7.027624846E-1,3.242250085E-1,-8.002499938E-1
1.246714640E0,6.951999664E-1,3.073124886E-1,-7.204999924E-1
1.249217334E0,6.824125051E-1,3.156999946E-1,-6.342874765E-1
1.251720101E0,6.707249880E-1,3.253250122E-1,-5.565999746E-1
1.254222866E0,6.547750235E-1,3.381125033E-1,-4.883999825E-1
1.256725635E0,6.419875026E-1,3.614875078E-1,-4.246000051E-1
1.259228404E0,6.313999891E-1,3.807374835E-1,-3.671250045E-1
1.261731197E0,6.282374859E-1,3.827999830E-1,-3.203749955E-1
1.264233967E0,6.282374859E-1,3.785375059E-1,-2.681249976E-1
1.266736737E0,6.228749752E-1,3.722124994E-1,-2.139499933E-1
1.269239507E0,6.239749789E-1,3.583250046E-1,-1.649999917E-1
1.271742276E0,6.313999891E-1,3.519999981E-1,-1.181124970E-1
1.274245040E0,6.324999928E-1,3.295874894E-1,-6.916250288E-2
1.276747579E0,6.250749826E-1,3.019500077E-1,-2.557500079E-2
1.279250346E0,6.293374896E-1,2.838000059E-1,1.484999992E-2
1.281753115E0,6.399250031E-1,2.700499892E-1,5.115000159E-2
1.284255885E0,6.579374671E-1,2.582249939E-1,7.768750191E-2
1.286758654E0,6.866750121E-1,2.465374917E-1,1.149500012E-1
1.289261423E0,7.207750082E-1,2.370499969E-1,1.596374959E-1
1.291764192E0,7.643625140E-1,2.444749922E-1,2.117500007E-1
1.294266962E0,8.101499677E-1,2.518999875E-1,2.682625055E-1
1.296769732E0,8.622624874E-1,2.593249977E-1,3.129499853E-1
1.299272493E0,9.165750146E-1,2.667500079E-1,3.437500000E-1
1.301775262E0,9.836750031E-1,2.945249975E-1,3.416875005E-1
1.304278055E0,1.057099938E0,3.295874894E-1,3.255999982E-1
1.306780824E0,1.127362490E0,3.636874855E-1,2.990624905E-1
1.309283531E0,1.191162467E0,3.796375096E-1,2.575374842E-1
1.311786298E0,1.243275046E0,3.785375059E-1,2.182125002E-1
1.314289082E0,1.277374983E0,3.594250083E-1,1.639000028E-1
1.316791851E0,1.283699989E0,3.370124996E-1,1.032624990E-1
1.319294620E0,1.274212480E0,2.923249900E-1,4.578749835E-2
1.321797389E0,1.248637438E0,2.083124965E-1,-1.911249943E-2
1.324300159E0,1.242312551E0,7.095000148E-2,-8.304999769E-2
1.326802929E0,1.229524970E0,2.419999987E-2,-1.394249946E-1
1.329305699E0,1.203950047E0,-1.416249946E-2,-1.872749925E-1
1.331808468E0,1.176312447E0,-5.664999783E-2,-2.117500007E-1
1.334311237E0,1.143312454E0,-6.311249733E-2,-2.160124928E-1
1.336814006E0,1.097525001E0,-7.053750008E-2,-1.968999952E-1
1.339316775E0,1.044312477E0,-5.348749831E-2,-1.585374922E-1
1.341819524E0,9.857375026E-1,-1.952499896E-2,-8.937499672E-2
1.344322293E0,9.261999726E-1,1.993750036E-2,-2.062499989E-3
1.346825043E0,8.729875088E-1,7.837499678E-2,9.253749996E-2
1.349327583E0,8.282999992E-1,1.465750039E-1,1.883749962E-1
1.351830350E0,7.899374962E-1,2.274249941E-1,3.033249974E-1
1.354333134E0,7.623000145E-1,3.529624939E-1,4.395875037E-1
1.356835903E0,7.378249764E-1,4.743750095E-1,5.938624740E-1
1.359338687E0,7.176125050E-1,5.563250184E-1,7.620249987E-1
1.361841456E0,7.027624846E-1,6.275500059E-1,9.428374767E-1
1.364344226E0,7.005624771E-1,6.584874988E-1,1.124887466E0
1.366846995E0,7.079874873E-1,6.829624772E-1,1.314362526E0
1.369349764E0,7.261375189E-1,7.031750083E-1,1.504799962E0
1.371852533E0,7.517125010E-1,7.126625180E-1,1.697437525E0
1.374355303E0,7.910374999E-1,6.382749677E-1,1.914549947E0
1.376857997E0,8.388875127E-1,5.190625191E-1,2.146512508E0
1.379360841E0,9.037874937E-1,3.731749952E-1,2.373250008E0
1.381863631E0,9.805124998E-1,1.986874938E-1,2.616899967E0
1.384366324E0,1.057099938E0,5.609999970E-2,2.888324976E0
1.386869091E0,1.112375021E0,1.135749966E-1,3.169237375E0
1.389371860E0,1.112375021E0,2.689499855E-1,3.413987398E0
1.391874629E0,1.083637476E0,2.635875046E-1,3.636462450E0
1.394377423E0,1.034687519E0,1.113749966E-1,3.838587523E0
1.396880192E0,9.900000095E-1,-6.737499684E-2,4.021599770E0
1.399382951E0,9.623624682E-1,-2.227499932E-1,4.189762592E0
1.401885720E0,9.592000246E-1,-3.323374987E-1,4.336612701E0
1.404388499E0,9.708874822E-1,-3.855499923E-1,4.491987705E0
1.406891269E0,9.996249676E-1,-4.079625010E-1,4.668674946E0
1.409393809E0,1.029462457E0,-4.206124842E-1,4.849625111E0
1.411896576E0,1.043212533E0,-3.918749988E-1,5.031537533E0
1.414399346E0,1.043212533E0,-2.429624945E-1,5.209324837E0
1.416902346E0,1.048575044E0,-9.817499667E-2,5.393437386E0
1.419404886E0,1.073050022E0,2.846249938E-2,5.576449871E0
1.421907653E0,1.117737532E0,1.955250055E-1,5.764824867E0
1.424410423E0,1.172049999E0,3.785375059E-1,5.960625172E0
1.426913192E0,1.195425034E0,5.689749718E-1,6.177737236E0
1.429415961E0,1.200787544E0,7.191249728E-1,6.405437469E0
1.431918730E0,1.205049992E0,7.797625065E-1,6.614025116E0
1.434421500E0,1.214537501E0,7.074375153E-1,6.769400120E0
1.436924283E0,1.254962444E0,7.084000111E-1,6.899337292E0
1.439427052E0,1.324262500E0,8.915500045E-1,7.003562450E0
1.441929816E0,1.402912498E0,1.106462479E0,7.074924946E0
1.444432585E0,1.470012546E0,1.270362496E0,7.114250183E0
1.446935355E0,1.497650027E0,1.319312453E0,7.137624741E0
1.449438125E0,1.490224957E0,1.253312469E0,7.152612686E0
1.451940895E0,1.450899959E0,1.113887548E0,7.151512623E0
1.454443588E0,1.380637527E0,8.904500008E-1,7.138724804E0
1.456946365E0,1.285899997E0,5.850625038E-1,7.134462357E0
1.459449134E0,1.169849992E0,2.540999949E-1,7.140787601E0
1.461951888E0,1.048575044E0,-6.627500057E-2,7.167462349E0
1.464454657E0,9.378874898E-1,-3.141874969E-1,7.198262691E0
1.466957427E0,8.538749814E-1,-4.036999941E-1,7.206787586E0
1.469460196E0,7.761874795E-1,-4.003999829E-1,7.191937447E0
1.471962965E0,7.090874910E-1,-2.993375063E-1,7.145050049E0
1.474465734E0,6.558749676E-1,-1.513874978E-1,7.058837414E0
1.476968504E0,6.111875176E-1,-5.458749831E-2,6.975924969E0
1.479471274E0,5.685625076E-1,-1.622499898E-2,6.902500153E0
1.481974044E0,5.196124911E-1,-2.048750035E-2,6.842824936E0
1.484476813E0,4.621374905E-1,-6.421250105E-2,6.794974804E0
1.486979568E0,4.036999941E-1,-1.226499975E-1,6.750287533E0
1.489482337E0,3.408625126E-1,-1.823250055E-1,6.705599785E0
1.491984876E0,2.759625018E-1,-2.301750034E-1,6.669437408E0
1.494487644E0,2.014375031E-1,-2.833875120E-1,6.641799927E0
1.496990398E0,1.302125007E-1,-3.302749991E-1,6.635337353E0
1.499493398E0,5.348749831E-2,-3.397625089E-1,6.645925045E0
1.501995938E0,-2.846249938E-2,-3.355000019E-1,6.667237282E0
1.504498971E0,-9.968750179E-2,-3.280749917E-1,6.688549995E0
1.507001512E0,-1.380500048E-1,-3.770250082E-1,6.709862232E0
1.509504279E0,-1.890625060E-1,-3.940750062E-1,6.737500191E0
1.512007038E0,-2.582249939E-1,-3.249124885E-1,6.742862701E0
1.514509807E0,-3.295874894E-1,-1.823250055E-1,6.713025093E0
1.517012563E0,-3.891249895E-1,5.609999970E-2,6.639599800E0
1.519515332E0,-4.434374869E-1,3.306874931E-1,6.520387650E0
1.522018101E0,-5.072374940E-1,6.030749679E-1,6.375737667E0
1.524520870E0,-5.615500212E-1,8.904500008E-1,6.204412460E0
1.527023640E0,-6.041749716E-1,1.194737434E0,5.994724751E0
1.529526410E0,-6.434999704E-1,1.505487442E0,5.765924931E0
1.532029180E0,-6.892874837E-1,1.811975002E0,5.529699802E0
1.534531872E0,-7.371374965E-1,2.126987457E0,5.298699856E0
1.537034717E0,-7.946124673E-1,2.457949877E0,5.045424938E0
1.539537411E0,-8.680375218E-1,2.852849960E0,4.736737251E0
1.542040260E0,-9.564499855E-1,3.299862385E0,4.407975197E0
1.544543031E0,-1.015987515E0,3.684037447E0,4.070549965E0
1.547045801E0,-1.023412466E0,3.840374947E0,3.738625050E0
1.549548493E0,-9.713000059E-1,3.771212578E0,3.426774979E0
1.552051240E0,-8.754624724E-1,3.563724995E0,3.144762516E0
1.554554009E0,-7.563874722E-1,3.275387526E0,2.924487591E0
1.557056779E0,-6.434999704E-1,2.933700085E0,2.772274971E0
1.559559548E0,-5.370749831E-1,2.571937561E0,2.688262463E0
1.562062298E0,-4.328500032E-1,2.225987434E0,2.651962519E0
1.564565067E0,-3.232625127E-1,1.930225015E0,2.636012554E0
1.567067846E0,-2.294874936E-1,1.675850034E0,2.624325037E0
1.569570616E0,-1.625249982E-1,1.445950031E0,2.609474897E0
1.572073386E0,-1.306249946E-1,1.267199993E0,2.587062597E0
1.574576117E0,-1.209999993E-1,1.141525030E0,2.570012569E0
1.577078656E0,-1.486375034E-1,1.050087452E0,2.569050074E0
1.579581654E0,-2.135374993E-1,1.018187523E0,2.581837416E0
1.582084194E0,-2.954874933E-1,1.056412458E0,2.620062590E0
1.584587192E0,-4.009499848E-1,1.149087548E0,2.704212427E0
1.587089963E0,-3.913249969E-1,1.487475038E0,2.790425062E0
1.589592733E0,-3.317874968E-1,1.925962448E0,2.896849871E0
1.592095502E0,-2.518999875E-1,2.395250082E0,3.032012463E0
1.594598040E0,-1.699499935E-1,2.879387379E0,3.164974928E0
1.597100808E0,-9.652499855E-2,3.338087559E0,3.302200079E0
1.599603611E0,-4.551250115E-2,3.728724957E0,3.440662384E0
1.602106380E0,-6.049999967E-3,4.066012383E0,3.593837500E0
1.604609144E0,1.526249945E-2,4.345962524E0,3.763099909E0
1.607111913E0,2.268750034E-2,4.565137386E0,3.953537464E0
1.609614683E0,2.474999987E-3,4.681187630E0,4.173812389E0
1.612117471E0,-9.226249903E-2,4.643925190E0,4.383500099E0
1.614620240E0,-9.542500228E-2,4.715149879E0,4.557024956E0
1.617123009E0,-6.146249920E-2,4.787612438E0,4.722987652E0
1.619625779E0,-1.209999993E-1,4.675825119E0,4.881525040E0
1.622128549E0,-2.231625021E-1,4.471499920E0,5.018887520E0
1.624631228E0,-2.869625092E-1,4.291649818E0,5.127375126E0
1.627134072E0,-3.295874894E-1,4.110700130E0,5.211387634E0
1.629636772E0,-3.572250009E-1,3.913800001E0,5.265699863E0
1.632139616E0,-3.711124957E-1,3.688162565E0,5.290174961E0
1.634642387E0,-3.646500111E-1,3.431725025E0,5.296637535E0
1.637145156E0,-3.381125033E-1,3.141187429E0,5.287012577E0
1.639647926E0,-2.912249863E-1,2.819849968E0,5.263637543E0
1.642150618E0,-2.231625021E-1,2.473900080E0,5.225275040E0
1.644653385E0,-1.401125044E-1,2.102512598E0,5.185949802E0
1.647156154E0,-5.073750019E-2,1.719437480E0,5.145524979E0
1.649658924E0,6.091250107E-2,1.337462544E0,5.104962349E0
1.652161693E0,2.067999989E-1,9.616749883E-1,5.058212280E0
1.654664462E0,3.749625087E-1,5.956500173E-1,4.997574806E0
1.657167231E0,5.537124872E-1,2.487374991E-1,4.928412437E0
1.659669996E0,7.303999662E-1,-7.906249911E-2,4.842199802E0
1.662172766E0,9.048874974E-1,-3.929750025E-1,4.745262623E0
1.664675536E0,1.068787456E0,-7.026249766E-1,4.646399975E0
1.667178193E0,1.205049992E0,-1.017637491E0,4.531449795E0
1.669680962E0,1.338012457E0,-1.329487443E0,4.401649952E0
1.672183516E0,1.452962518E0,-1.650962472E0,4.258924961E0
1.674686514E0,1.514699936E0,-2.016987562E0,4.100387573E0
1.677189285E0,1.552924991E0,-2.370362520E0,3.936487436E0
1.679692054E0,1.575337529E0,-2.669287443E0,3.781112432E0
1.682194824E0,1.577399969E0,-2.950337410E0,3.639625072E0
1.684697593E0,1.563650012E0,-3.265349865E0,3.522612572E0
1.687200362E0,1.549762487E0,-3.611162424E0,3.451250076E0
1.689702901E0,1.540274978E0,-3.947487593E0,3.420449972E0
1.692205668E0,1.528450012E0,-4.242287636E0,3.413987398E0
1.694708437E0,1.526387453E0,-4.497624874E0,3.417150021E0
1.697211206E0,1.523224950E0,-4.721199989E0,3.440662384E0
1.699713976E0,1.514699936E0,-4.905312538E0,3.533200026E0
1.702216745E0,1.521024942E0,-5.034012318E0,3.661900043E0
1.704719745E0,1.540274978E0,-5.079800129E0,3.802424908E0
1.707222270E0,1.574237466E0,-5.025487423E0,3.968387365E0
1.709725038E0,1.628549933E0,-4.883999825E0,4.155799866E0
1.712227807E0,1.688087463E0,-4.662624836E0,4.360125065E0
1.714730591E0,1.731812477E0,-4.391200066E0,4.542037487E0
1.717233360E0,1.757249951E0,-4.095437527E0,4.715562344E0
1.719736153E0,1.780762434E0,-3.777124882E0,4.879462242E0
1.722238923E0,1.796712518E0,-3.451524973E0,5.000737667E0
1.724741692E0,1.793550014E0,-3.104612589E0,5.084750175E0
1.727244461E0,1.785025001E0,-2.736387491E0,5.134799957E0
1.729747230E0,1.757249951E0,-2.368162394E0,5.150750160E0
1.732250000E0,1.714762449E0,-2.011625051E0,5.126275063E0
1.734752794E0,1.657287478E0,-1.673237443E0,5.072100163E0
1.737255564E0,1.580700040E0,-1.347637534E0,4.990149975E0
1.739758333E0,1.496549964E0,-1.043212533E0,4.890049934E0
1.742261102E0,1.399749994E0,-7.537750006E-1,4.770837307E0
1.744763795E0,1.294425011E0,-4.686000049E-1,4.647362709E0
1.747266562E0,1.181537509E0,-1.918125004E-1,4.515500069E0
1.749769331E0,1.066587448E0,5.719999969E-2,4.383500099E0
1.752272178E0,9.506750107E-1,2.827000022E-1,4.244074821E0
1.754774872E0,8.399875164E-1,4.806999862E-1,4.102587700E0
1.757277682E0,7.293000221E-1,6.371750236E-1,3.956700087E0
1.759780376E0,6.334624887E-1,7.456625104E-1,3.808887482E0
1.762283144E0,5.472499728E-1,8.222500086E-1,3.649250031E0
1.764785908E0,4.760249853E-1,8.765624762E-1,3.481087446E0
1.767288677E0,4.228124917E-1,8.958125114E-1,3.309762478E0
1.769791446E0,3.834874928E-1,8.830249906E-1,3.134175062E0
1.772294202E0,3.621749878E-1,8.574500084E-1,2.955287457E0
1.774796971E0,3.621749878E-1,8.190875053E-1,2.770212412E0
1.777299759E0,3.781250119E-1,7.701374888E-1,2.562587500E0
1.779802528E0,3.972375095E-1,7.052375078E-1,2.321000099E0
1.782305297E0,4.334000051E-1,6.509249806E-1,2.049712420E0
1.784808067E0,4.866124988E-1,6.115999818E-1,1.749549985E0
1.787310837E0,5.388625264E-1,5.689749718E-1,1.415424943E0
1.789813607E0,5.909749866E-1,5.242875218E-1,1.066312551E0
1.792316376E0,6.451500058E-1,4.903250039E-1,7.099124789E-1
1.794819145E0,6.962999701E-1,4.647499919E-1,3.576374948E-1
1.797321914E0,7.389249802E-1,4.593875110E-1,1.498750038E-2
1.799824453E0,7.708249688E-1,4.743750095E-1,-3.075875044E-1
1.802327226E0,7.899374962E-1,4.870249927E-1,-5.490375161E-1
1.804830226E0,8.090500236E-1,4.998124838E-1,-6.715499759E-1
1.807332766E0,8.314625025E-1,5.200250149E-1,-6.884624958E-1
1.809835744E0,8.485124707E-1,5.455999970E-1,-6.033499837E-1
1.812338515E0,8.559374809E-1,5.839625001E-1,-4.394499958E-1
1.814841290E0,8.442500234E-1,6.212249994E-1,-2.234375030E-1
1.817344059E0,7.973625064E-1,6.434999704E-1,3.093750030E-2
1.819846597E0,7.271000147E-1,6.520249844E-1,2.990624905E-1
1.822349364E0,6.356624961E-1,6.286500096E-1,5.512375236E-1
1.824852134E0,5.292375088E-1,5.774999857E-1,7.683500051E-1
1.827354903E0,4.163500071E-1,4.988499880E-1,9.407749772E-1
1.829857672E0,3.110249937E-1,4.041124880E-1,1.059987545E0
1.832360441E0,2.216500044E-1,3.082749844E-1,1.128049970E0
1.834863211E0,1.545500010E-1,2.146375030E-1,1.151562452E0
1.837365980E0,1.055999994E-1,1.306249946E-1,1.143037438E0
1.839868735E0,7.053750008E-2,7.095000148E-2,1.110999942E0
1.842371504E0,5.142499879E-2,2.419999987E-2,1.065349936E0
1.844874274E0,4.399999976E-2,-4.537499975E-3,1.014199972E0
1.847377150E0,4.069999978E-2,-1.196249947E-2,9.652500153E-1
1.849879920E0,4.179999977E-2,-2.474999987E-3,9.174000025E-1
1.852382689E0,4.289999977E-2,1.567500085E-2,8.747749925E-1
1.854885444E0,4.289999977E-2,3.052499890E-2,8.343499899E-1
1.857388213E0,3.863750026E-2,5.183750018E-2,7.885624766E-1
1.859890992E0,3.753750026E-2,9.762500226E-2,7.503374815E-1
1.862393761E0,3.121249937E-2,1.369500011E-1,7.236624956E-1
1.864896549E0,1.526249945E-2,1.731124967E-1,6.938250065E-1
1.867399318E0,5.637499969E-3,2.083124965E-1,6.609625220E-1
1.869902087E0,-8.249999955E-3,2.348500043E-1,6.311249733E-1
1.872404856E0,-2.846249938E-2,2.465374917E-1,5.927624702E-1
1.874907625E0,-5.073750019E-2,2.402125001E-1,5.352874994E-1
1.877410395E0,-6.778749824E-2,2.402125001E-1,4.789125025E-1
1.879913089E0,-8.167500049E-2,2.359499931E-1,4.353249967E-1
1.882415856E0,-9.446249902E-2,2.253624946E-1,3.863750100E-1
1.884918625E0,-1.050499976E-1,2.146375030E-1,3.416875005E-1
1.887421395E0,-1.124750003E-1,2.061125040E-1,2.969999909E-1
1.889924164E0,-1.178374961E-1,1.933249980E-1,2.532750070E-1
1.892426923E0,-1.199000031E-1,1.805374920E-1,2.085874975E-1
1.894929769E0,-1.189374998E-1,1.645874977E-1,1.670625061E-1
1.897432464E0,-1.220999956E-1,1.486375034E-1,1.297999918E-1
1.899935236E0,-1.284250021E-1,1.337874979E-1,9.583749622E-2
1.902438005E0,-1.315875053E-1,1.178374961E-1,6.916250288E-2
1.904940774E0,-1.423124969E-1,1.061500013E-1,4.895000160E-2
1.907443549E0,-1.645874977E-1,1.028499976E-1,3.189999983E-2
1.909946318E0,-1.859000027E-1,9.762500226E-2,1.814999990E-2
1.912449087E0,-2.177999914E-1,1.039500013E-1,1.072499994E-2
1.914951860E0,-2.561624944E-1,1.167374998E-1,8.524999954E-3
1.917454630E0,-3.030500114E-1,1.273249984E-1,1.168750040E-2
1.919957400E0,-3.562625051E-1,1.454750001E-1,2.131249942E-2
1.922460175E0,-4.147000015E-1,1.614249945E-1,2.447500080E-2
1.924962944E0,-4.743750095E-1,1.773750037E-1,3.299999982E-2
1.927465713E0,-5.370749831E-1,1.923625022E-1,3.519999981E-2
1.929968482E0,-6.019750237E-1,2.050125003E-1,3.519999981E-2
1.932471251E0,-6.711375117E-1,2.177999914E-1,4.042499885E-2
1.934974020E0,-7.371374965E-1,2.263250053E-1,4.042499885E-2
1.937476789E0,-7.979124784E-1,2.348500043E-1,4.042499885E-2
1.939979563E0,-8.574500084E-1,2.402125001E-1,3.726249933E-2
1.942482332E0,-9.138249755E-1,2.422749996E-1,3.616249934E-2
1.944984872E0,-9.702000022E-1,2.465374917E-1,3.093750030E-2
1.947487889E0,-1.026712537E0,2.487374991E-1,2.337500080E-2
1.949990661E0,-1.077725053E0,2.413125038E-1,2.021249942E-2
1.952493430E0,-1.135200024E0,2.327875048E-1,1.388750039E-2
1.954996199E0,-1.194737434E0,2.188999951E-1,8.524999954E-3
1.957498940E0,-1.256474972E0,2.072124928E-1,-3.162499983E-3
1.960001710E0,-1.320412517E0,1.966249943E-1,-1.278750040E-2
1.962504479E0,-1.388474941E0,1.816374958E-1,-2.653750032E-2
1.965007017E0,-1.459837437E0,1.625249982E-1,-4.152499884E-2
1.967509785E0,-1.538487434E0,1.412124932E-1,-5.953750014E-2
1.970012554E0,-1.624699950E0,1.167374998E-1,-8.401250094E-2
1.972515323E0,-1.712012529E0,8.263749629E-2,-1.075249985E-1
1.975018092E0,-1.806749940E0,3.904999793E-2,-1.329624951E-1
1.977521092E0,-1.903550029E0,-1.306249946E-2,-1.670625061E-1
1.980023633E0,-2.007912397E0,-7.479999959E-2,-1.978625059E-1
1.982526650E0,-2.118462563E0,-1.419000030E-1,-2.362249941E-1
1.985029421E0,-2.232450008E0,-2.120250016E-1,-2.723875046E-1
1.987531959E0,-2.348362446E0,-2.822875082E-1,-3.096500039E-1
1.990034727E0,-2.467575073E0,-3.482874930E-1,-3.511750102E-1
1.992537520E0,-2.597374916E0,-4.142875075E-1,-3.916000128E-1
1.995040289E0,-2.734737396E0,-4.738250077E-1,-4.331249893E-1
1.997543082E0,-2.869899988E0,-5.218124986E-1,-4.735499918E-1
2.000045852E0,-3.000799894E0,-5.526124835E-1,-5.097125173E-1
2.002548621E0,-3.129499912E0,-5.802500248E-1,-5.406500101E-1
2.005051390E0,-3.248712540E0,-6.186124682E-1,-5.682874918E-1
2.007554145E0,-3.361462593E0,-6.697624922E-1,-5.970249772E-1
2.010057145E0,-3.466924906E0,-7.271000147E-1,-6.235625148E-1
2.012559686E0,-3.561524868E0,-7.910374999E-1,-6.491374969E-1
2.015062453E0,-3.645674944E0,-8.485124707E-1,-6.789749861E-1
2.017565222E0,-3.707412481E0,-8.920999765E-1,-7.034500241E-1
2.020067991E0,-3.753200054E0,-9.219374657E-1,-7.374125123E-1
2.022570761E0,-3.792525053E0,-9.432500005E-1,-7.704125047E-1
2.025073530E0,-3.821262598E0,-9.623624682E-1,-8.087750077E-1
2.027576299E0,-3.841475010E0,-9.581000209E-1,-8.428750038E-1
2.030079067E0,-3.852062464E0,-9.145125151E-1,-8.768374920E-1
2.032581837E0,-3.861687422E0,-8.485124707E-1,-9.077749848E-1
2.035084607E0,-3.871312380E0,-7.771499753E-1,-9.374749660E-1
2.037587377E0,-3.865949869E0,-6.877750158E-1,-9.513624907E-1
2.040090146E0,-3.851099968E0,-5.654000044E-1,-9.470999837E-1
2.042592915E0,-3.824424982E0,-4.185499847E-1,-9.322500229E-1
2.045095684E0,-3.793624878E0,-2.344374955E-1,-9.024124742E-1
2.047598444E0,-3.752099991E0,-3.973750025E-2,-8.662499785E-1
2.050101213E0,-3.707412481E0,1.497374922E-1,-8.311874866E-1
2.052603982E0,-3.647737503E0,3.444375098E-1,-7.959874868E-1
2.055106741E0,-3.575412512E0,5.583875179E-1,-7.576249838E-1
2.057609510E0,-3.482874870E0,8.138625026E-1,-7.182999849E-1
2.060112279E0,-3.366824865E0,1.130937457E0,-6.810374856E-1
2.062615049E0,-3.230562449E0,1.502324939E0,-6.470749974E-1
2.065117819E0,-3.100762367E0,1.832187533E0,-6.554625034E-1
2.067620589E0,-2.986912489E0,2.121762514E0,-6.672874689E-1
2.070123358E0,-2.861375093E0,2.446262598E0,-6.639875174E-1
2.072626127E0,-2.739000082E0,2.748487473E0,-6.767749786E-1
2.075128896E0,-2.631474972E0,3.000799894E0,-7.140374780E-1
2.077631665E0,-2.528212547E0,3.208287477E0,-7.555624843E-1
2.080134434E0,-2.418624878E0,3.373287439E0,-8.045125008E-1
2.082637203E0,-2.300512552E0,3.495662451E0,-8.597875237E-1
2.085139938E0,-2.177037477E0,3.546674967E0,-9.162999988E-1
2.087642707E0,-2.040225029E0,3.520550013E0,-9.732249975E-1
2.090145387E0,-1.901899934E0,3.428012371E0,-1.029600024E0
2.092648154E0,-1.764537454E0,3.280062437E0,-1.082812548E0
2.095150900E0,-1.628412485E0,3.089624882E0,-1.120074987E0
2.097653669E0,-1.484724998E0,2.874574900E0,-1.137125015E0
2.100156515E0,-1.338974953E0,2.636287451E0,-1.131762505E0
2.102659213E0,-1.194187522E0,2.371187449E0,-1.103024960E0
2.105162058E0,-1.046237469E0,2.076524973E0,-1.057374954E0
2.107664752E0,-9.004874825E-1,1.768937469E0,-1.012687445E0
2.110167596E0,-7.684875131E-1,1.443199992E0,-9.668999910E-1
2.112670367E0,-6.440500021E-1,1.103850007E0,-9.274374843E-1
2.115173136E0,-5.311625004E-1,7.717875242E-1,-8.901749849E-1
2.117675906E0,-4.204750061E-1,4.716250002E-1,-8.647375107E-1
2.120178675E0,-3.183124959E-1,2.055625021E-1,-8.412249684E-1
2.122681367E0,-2.331999987E-1,-1.581249945E-2,-8.243125081E-1
2.125184134E0,-1.651374996E-1,-1.891999990E-1,-8.146874905E-1
2.127686876E0,-1.247124970E-1,-3.115749955E-1,-8.135874867E-1
2.130189645E0,-1.076624990E-1,-3.722124994E-1,-8.317375183E-1
2.132692414E0,-1.193500012E-1,-3.542000055E-1,-8.764249682E-1
2.135195158E0,-1.694000065E-1,-2.796750069E-1,-9.359624982E-1
2.137697928E0,-2.545124888E-1,-1.647250056E-1,-9.976999760E-1
2.140200698E0,-3.726249933E-1,-5.087499972E-3,-1.050912499E0
2.142703492E0,-5.024250150E-1,1.981374919E-1,-1.098762512E0
2.145206261E0,-6.355249882E-1,4.291374981E-1,-1.138224959E0
2.147709106E0,-7.482749820E-1,6.568375230E-1,-1.159537435E0
2.150211800E0,-8.355875015E-1,8.877000213E-1,-1.173287511E0
2.152714644E0,-9.015874863E-1,1.117599964E0,-1.180712461E0
2.155217415E0,-9.429749846E-1,1.314499974E0,-1.171224952E0
2.157720108E0,-9.728124738E-1,1.463549972E0,-1.156237483E0
2.160222875E0,-9.941250086E-1,1.563512444E0,-1.129699945E0
2.162725644E0,-1.008012533E0,1.612462521E0,-1.100962520E0
2.165228399E0,-1.012274981E0,1.598574996E0,-1.070024967E0
2.167731169E0,-1.015437484E0,1.531612515E0,-1.042387486E0
2.170233938E0,-1.010074973E0,1.424087524E0,-1.019012451E0
2.172736697E0,-9.941250086E-1,1.288925052E0,-1.003062487E0
2.175239461E0,-9.802374840E-1,1.122962475E0,-9.839500189E-1
2.177742230E0,-9.622250199E-1,9.132750034E-1,-9.572749734E-1
2.180245000E0,-9.345874786E-1,6.748499870E-1,-9.402250051E-1
2.182747846E0,-9.142374992E-1,4.056249857E-1,-9.296374917E-1
2.185250569E0,-8.888000250E-1,1.183874980E-1,-9.179499745E-1
2.187753388E0,-8.526374698E-1,-1.572999954E-1,-9.094250202E-1
2.190256083E0,-7.918624878E-1,-3.966875076E-1,-9.083250165E-1
2.192758850E0,-7.226999998E-1,-6.137999892E-1,-9.009000063E-1
2.195261619E0,-6.440500021E-1,-8.086374998E-1,-8.966374993E-1
2.197764388E0,-5.769500136E-1,-9.884874821E-1,-9.105250239E-1
2.200267158E0,-5.333625078E-1,-1.183187485E0,-9.530124664E-1
2.202769927E0,-5.109499693E-1,-1.414187551E0,-1.015849948E0
2.205272696E0,-5.152124763E-1,-1.654675007E0,-1.086112499E0
2.207775465E0,-5.311625004E-1,-1.857900023E0,-1.162699938E0
2.210278235E0,-5.630624890E-1,-1.984537482E0,-1.247812510E0
2.212781005E0,-5.917999744E-1,-2.012175083E0,-1.339387536E0
2.215283775E0,-6.173750162E-1,-1.943012476E0,-1.428762436E0
2.217786544E0,-6.333249807E-1,-1.804687500E0,-1.510712504E0
2.220289313E0,-6.599999666E-1,-1.640787482E0,-1.576712489E0
2.222792082E0,-6.993250251E-1,-1.469462514E0,-1.622362494E0
2.225294851E0,-7.514374852E-1,-1.316287518E0,-1.639412522E0
2.227797620E0,-8.120750189E-1,-1.197075009E0,-1.630887508E0
2.230300399E0,-8.823375106E-1,-1.118287444E0,-1.592662454E0
2.232803168E0,-9.494374990E-1,-1.075662494E0,-1.524462461E0
2.235305946E0,-1.011175036E0,-1.062875032E0,-1.439350009E0
2.237808715E0,-1.057924986E0,-1.077862501E0,-1.357399940E0
2.240311499E0,-1.100549936E0,-1.121449947E0,-1.272287488E0
2.242814269E0,-1.144137502E0,-1.187450051E0,-1.196799994E0
2.245317039E0,-1.188825011E0,-1.269400001E0,-1.144549966E0
2.247819809E0,-1.228287458E0,-1.359874964E0,-1.091337442E0
2.250322578E0,-1.255924940E0,-1.446087480E0,-1.043487549E0
2.252825347E0,-1.267612457E0,-1.523774981E0,-1.009387493E0
2.255328116E0,-1.266512513E0,-1.587574959E0,-9.806500077E-1
2.257830885E0,-1.252762437E0,-1.642987490E0,-9.604374766E-1
2.260333654E0,-1.231449962E0,-1.680112481E0,-9.476500154E-1
2.262836423E0,-1.199550033E0,-1.699362516E0,-9.327999949E-1
2.265339192E0,-1.160087466E0,-1.705687523E0,-9.168499708E-1
2.267841975E0,-1.118562460E0,-1.704725027E0,-8.986999989E-1
2.270344744E0,-1.080337524E0,-1.703624964E0,-8.784874678E-1
2.272847513E0,-1.046237469E0,-1.703624964E0,-8.519499898E-1
2.275350298E0,-1.016399980E0,-1.703624964E0,-8.306375146E-1
2.277853068E0,-9.878000021E-1,-1.705687523E0,-8.072624803E-1
2.280355828E0,-9.622250199E-1,-1.706787467E0,-7.753624916E-1
2.282858597E0,-9.366499782E-1,-1.711050034E0,-7.369999886E-1
2.285361366E0,-9.142374992E-1,-1.718474984E0,-7.062000036E-1
2.287864135E0,-8.962249756E-1,-1.724937439E0,-6.763625145E-1
2.290366904E0,-8.738124967E-1,-1.731262445E0,-6.539499760E-1
2.292869673E0,-8.526374698E-1,-1.733325005E0,-6.391000152E-1
2.295372442E0,-8.270624876E-1,-1.723837495E0,-6.231499910E-1
2.297875211E0,-7.886999846E-1,-1.705687523E0,-6.124249697E-1
2.300377980E0,-7.482749820E-1,-1.684375048E0,-6.029375196E-1
2.302880749E0,-7.121124864E-1,-1.672687531E0,-5.836874843E-1
2.305383519E0,-6.791124940E-1,-1.667462468E0,-5.539875031E-1
2.307886289E0,-6.450124979E-1,-1.664162517E0,-5.209875107E-1
2.310389059E0,-6.077499986E-1,-1.655637503E0,-4.794625044E-1
2.312891828E0,-5.748875141E-1,-1.635424972E0,-4.273499846E-1
2.315394597E0,-5.365250111E-1,-1.613150001E0,-3.730374873E-1
2.317897366E0,-4.918375015E-1,-1.583312511E0,-3.240875006E-1
2.320400135E0,-4.364250004E-1,-1.537524939E0,-2.793999910E-1
2.322902904E0,-3.726249933E-1,-1.483350039E0,-2.410375029E-1
2.325405649E0,-3.077250123E-1,-1.426837444E0,-2.059749961E-1
2.327908418E0,-2.396624982E-1,-1.372662544E0,-1.665125042E-1
2.330411187E0,-1.757249981E-1,-1.324674964E0,-1.260875016E-1
2.332913956E0,-1.225124970E-1,-1.295937538E0,-9.102500230E-2
2.335416739E0,-6.929999590E-2,-1.279024959E0,-6.118749827E-2
2.337919509E0,-2.144999988E-2,-1.264037490E0,-2.928750031E-2
2.340422279E0,2.859999985E-2,-1.241762519E0,6.874999963E-3
2.342925049E0,7.961250097E-2,-1.204499960E0,5.376249924E-2
2.345427818E0,1.264999956E-1,-1.161875010E0,1.079374999E-1
2.347930587E0,1.700875014E-1,-1.131075025E0,1.665125042E-1
2.350433356E0,2.116124928E-1,-1.111962438E0,2.186249942E-1
2.352936125E0,2.468124926E-1,-1.104400039E0,2.675749958E-1
2.355438909E0,2.733500004E-1,-1.112925053E0,3.070375025E-1
2.357941678E0,2.967250049E-1,-1.143862486E0,3.357749879E-1
2.360444447E0,3.191374838E-1,-1.183187485E0,3.591499925E-1
2.362947216E0,3.361875117E-1,-1.225812435E0,3.730374873E-1
2.365449985E0,3.510375023E-1,-1.267199993E0,3.804624975E-1
2.367952754E0,3.649249971E-1,-1.299237490E0,3.782624900E-1
2.370455524E0,3.766124845E-1,-1.304462552E0,3.719374835E-1
2.372958294E0,3.797749877E-1,-1.286450028E0,3.623124957E-1
2.375461064E0,3.744125068E-1,-1.241762519E0,3.474625051E-1
2.377963828E0,3.616249859E-1,-1.169299960E0,3.324750066E-1
2.380466597E0,3.328875005E-1,-1.084187508E0,3.113000095E-1
2.382969366E0,2.861374915E-1,-9.767999649E-1,2.857249975E-1
2.385472135E0,2.201374918E-1,-8.639125228E-1,2.612499893E-1
2.387974904E0,1.435499936E-1,-7.511624694E-1,2.217874974E-1
2.390477673E0,6.586249918E-2,-6.373124719E-1,1.728374958E-1
2.392980422E0,-4.399999976E-3,-5.468375087E-1,1.143999994E-1
2.395483191E0,-5.224999785E-2,-4.871625006E-1,3.987500072E-2
2.397985951E0,-6.503749639E-2,-4.499000013E-1,-6.655000150E-2
2.400488721E0,-5.335000157E-2,-4.489375055E-1,-1.772374958E-1
2.402991491E0,-4.399999976E-3,-4.819374979E-1,-2.836624980E-1
2.405494261E0,8.181250095E-2,-5.361124873E-1,-3.995749950E-1
2.407997044E0,1.956624985E-1,-6.063749790E-1,-5.273125172E-1
2.410499804E0,3.180375099E-1,-6.755374670E-1,-6.348375082E-1
2.413002573E0,4.287250042E-1,-7.287499905E-1,-7.145875096E-1
2.415505342E0,5.191999674E-1,-7.808625102E-1,-7.466250062E-1
2.418008111E0,5.894625187E-1,-8.223875165E-1,-7.221499681E-1
2.420510880E0,6.362124681E-1,-8.436999917E-1,-6.529874802E-1
2.423013649E0,6.703125238E-1,-8.490625024E-1,-5.603125095E-1
2.425516418E0,6.905249953E-1,-8.650124669E-1,-4.538874924E-1
2.428019187E0,6.925874949E-1,-9.171249866E-1,-3.454000056E-1
2.430521956E0,6.692125201E-1,-1.000174999E0,-2.389750034E-1
2.433024726E0,6.287875175E-1,-1.103437543E0,-1.420374960E-1
2.435527496E0,5.724124908E-1,-1.207662463E0,-6.338749826E-2
2.438030266E0,5.117750168E-1,-1.303499937E0,-7.012499962E-3
2.440533010E0,4.478375018E-1,-1.390674949E0,3.781250119E-2
2.443035779E0,3.766124845E-1,-1.469462514E0,6.751249731E-2
2.445538553E0,3.095124960E-1,-1.536562443E0,8.676250279E-2
2.448041322E0,2.468124926E-1,-1.590737462E0,9.844999760E-2
2.450544091E0,1.903000027E-1,-1.621675014E0,1.005124971E-1
2.453046889E0,1.392875016E-1,-1.635424972E0,9.198749810E-2
2.455549658E0,1.020250022E-1,-1.631162524E0,8.456250280E-2
2.458052441E0,7.961250097E-2,-1.605725050E0,6.971249729E-2
2.460555210E0,6.792499870E-2,-1.565299988E0,6.544999778E-2
2.463057979E0,6.159999967E-2,-1.507825017E0,6.118749827E-2
2.465560749E0,6.696250290E-2,-1.438662529E0,5.898749828E-2
2.468063519E0,6.792499870E-2,-1.369500041E0,6.324999779E-2
2.470566289E0,8.181250095E-2,-1.303499937E0,7.287500054E-2
2.473069058E0,9.666249901E-2,-1.239562511E0,8.456250280E-2
2.475571837E0,1.137124971E-1,-1.177824974E0,9.308750182E-2
2.478074606E0,1.318625063E-1,-1.109762549E0,1.036750004E-1
2.480577375E0,1.563374996E-1,-1.036337495E0,1.186624989E-1
2.483080220E0,1.882375032E-1,-9.703375101E-1,1.303499937E-1
2.485582867E0,2.223374993E-1,-9.139624834E-1,1.451999992E-1
2.488085711E0,2.551999986E-1,-8.692749739E-1,1.611499935E-1
2.490588482E0,2.924624979E-1,-8.245875239E-1,1.718750000E-1
2.493091251E0,3.350875080E-1,-7.756375074E-1,1.835625023E-1
2.495594020E0,3.777124882E-1,-7.255874872E-1,1.920875013E-1
2.498096790E0,4.138749838E-1,-6.808999777E-1,1.984124929E-1
2.500599559E0,4.468750060E-1,-6.276875138E-1,2.015749961E-1
2.503102328E0,4.839999974E-1,-5.616874695E-1,2.058375031E-1
2.505605097E0,5.202999711E-1,-4.893625081E-1,1.984124929E-1
2.508107780E0,5.468375087E-1,-4.063124955E-1,1.856250018E-1
2.510610547E0,5.670499802E-1,-3.009875119E-1,1.707749963E-1
2.513113307E0,5.798375010E-1,-1.817750037E-1,1.451999992E-1
2.515616076E0,5.852000117E-1,-5.087500066E-2,1.196250021E-1
2.518118846E0,5.841000080E-1,1.108250022E-1,9.515000135E-2
2.520621571E0,5.755749941E-1,2.906749845E-1,6.324999779E-2
2.523124340E0,5.616874695E-1,4.801499844E-1,2.392499894E-2
2.525627186E0,5.436750054E-1,6.727874875E-1,-3.038750030E-2
2.528129881E0,5.160375237E-1,8.771125078E-1,-8.786249906E-2
2.530632730E0,4.808374941E-1,1.099587440E0,-1.379124969E-1
2.533135501E0,4.521000087E-1,1.329349995E0,-1.761374921E-1
2.535638275E0,4.244624972E-1,1.577399969E0,-2.017125040E-1
2.538141044E0,3.957250118E-1,1.831637502E0,-2.197249979E-1
2.540643814E0,3.595624864E-1,2.076524973E0,-2.304500043E-1
2.543146583E0,3.020874858E-1,2.311650038E0,-2.432374954E-1
2.545649352E0,2.371875048E-1,2.540450096E0,-2.666125000E-1
2.548152121E0,1.722874939E-1,2.754400015E0,-2.890250087E-1
2.550654890E0,1.211374998E-1,2.945937395E0,-2.910875082E-1
2.553157659E0,9.143749624E-2,3.122624874E0,-2.782999873E-1
2.555660428E0,9.886249900E-2,3.287487507E0,-2.484624982E-1
2.558163197E0,1.711875051E-1,3.434337378E0,-2.028124928E-1
2.560665966E0,3.106124997E-1,3.483287573E0,-1.282874942E-1
2.563168735E0,5.266249776E-1,3.380162477E0,-2.722499892E-2
2.565671518E0,7.660124898E-1,3.136374950E0,6.861250103E-2
2.568174287E0,1.004437447E0,2.779974937E0,1.420374960E-1
2.570677057E0,1.228012443E0,2.336124897E0,1.963499933E-1
2.573179808E0,1.415287495E0,1.846624970E0,2.250874937E-1
2.575682578E0,1.558974981E0,1.337875009E0,2.336124927E-1
2.578185347E0,1.658937454E0,8.557999730E-1,2.271499932E-1
2.580688126E0,1.710087538E0,4.258374870E-1,2.165624946E-1
2.583190895E0,1.713250041E0,7.686249912E-2,2.058375031E-1
2.585693664E0,1.678050041E0,-1.871374995E-1,2.048749924E-1
2.588196438E0,1.615350008E0,-3.531000018E-1,2.100999951E-1
2.590699207E0,1.530237436E0,-4.222624898E-1,2.293500006E-1
2.593201976E0,1.428074956E0,-4.031499922E-1,2.612499893E-1
2.595704745E0,1.315187454E0,-3.052499890E-1,3.144625127E-1
2.598207514E0,1.201337457E0,-1.476749927E-1,3.804624975E-1
2.600710283E0,1.089550018E0,5.761250108E-2,4.581499994E-1
2.603213053E0,9.916499853E-1,3.066250086E-1,5.528874993E-1
2.605715823E0,9.087374806E-1,5.748875141E-1,6.474875212E-1
2.608218593E0,8.362749815E-1,8.504375219E-1,7.444249988E-1
2.610721362E0,7.799000144E-1,1.127225041E0,8.349000216E-1
2.613224131E0,7.383750081E-1,1.401812434E0,9.146500230E-1
2.615726880E0,7.096375227E-1,1.662512541E0,9.838125110E-1
2.618229649E0,6.925874949E-1,1.904099941E0,1.043487549E0
2.620732389E0,6.840624809E-1,2.115849972E0,1.089137435E0
2.623235158E0,6.862624884E-1,2.296799898E0,1.125437498E0
2.625737927E0,6.905249953E-1,2.451075077E0,1.159399986E0
2.628240696E0,6.947875023E-1,2.573450089E0,1.187037468E0
2.630743470E0,7.001500130E-1,2.665024996E0,1.209450006E0
2.633246239E0,7.022125125E-1,2.726762533E0,1.228562474E0
2.635749024E0,7.011125088E-1,2.752199888E0,1.245612502E0
2.638251794E0,6.925874949E-1,2.749037504E0,1.260462523E0
2.640754549E0,6.799374819E-1,2.717137575E0,1.270087481E0
2.643257318E0,6.671500206E-1,2.653199911E0,1.274350047E0
2.645760316E0,6.489999890E-1,2.570287466E0,1.281774998E0
2.648262857E0,6.128374934E-1,2.459599972E0,1.294562459E0
2.650765855E0,5.564625263E-1,2.302025080E0,1.306249976E0
2.653268395E0,4.839999974E-1,2.121212482E0,1.320137501E0
2.655771393E0,3.999874890E-1,1.922112465E0,1.333887458E0
2.658274165E0,2.989250124E-1,1.707200050E0,1.348875046E0
2.660776934E0,1.871374995E-1,1.467674971E0,1.369087458E0
2.663279703E0,6.476250291E-2,1.201750040E0,1.387099981E0
2.665782472E0,-5.981250107E-2,9.314249754E-1,1.406350017E0
2.668285276E0,-1.757249981E-1,6.589000225E-1,1.429725051E0
2.670788045E0,-2.800875008E-1,3.843125105E-1,1.453099966E0
2.673290814E0,-3.865124881E-1,1.119249985E-1,1.475512505E0
2.675793583E0,-4.716250002E-1,-1.456124932E-1,1.493525028E0
2.678296352E0,-5.216749907E-1,-3.647874892E-1,1.495725036E0
2.680799121E0,-5.407875180E-1,-5.520625114E-1,1.477574944E0
2.683301890E0,-5.428500175E-1,-7.469000220E-1,1.436187506E0
2.685804659E0,-5.407875180E-1,-9.532874823E-1,1.393562436E0
2.688307423E0,-5.109499693E-1,-1.161875010E0,1.357399940E0
2.690810192E0,-4.525125027E-1,-1.353412509E0,1.331825018E0
2.693312980E0,-3.630000055E-1,-1.526937485E0,1.301987529E0
2.695815749E0,-2.470874935E-1,-1.696200013E0,1.282874942E0
2.698318518E0,-1.119249985E-1,-1.852537513E0,1.259500027E0
2.700821288E0,3.918749839E-2,-1.983437538E0,1.226500034E0
2.703324058E0,1.988250017E-1,-2.110074997E0,1.207249999E0
2.705826853E0,3.658874929E-1,-2.238912582E0,1.192399979E0
2.708329622E0,5.351499915E-1,-2.374074936E0,1.169024944E0
2.710832401E0,6.968500018E-1,-2.519824982E0,1.120074987E0
2.713335170E0,8.522250056E-1,-2.679462433E0,1.063699961E0
2.715837939E0,9.948124886E-1,-2.859312534E0,1.013649940E0
2.718340708E0,1.118287444E0,-3.062537432E0,9.806500077E-1
2.720843477E0,1.226912498E0,-3.275387526E0,9.508125186E-1
2.723346246E0,1.327975035E0,-3.472287416E0,9.103875160E-1
2.725849015E0,1.435500026E0,-3.627662420E0,8.668000102E-1
2.728351784E0,1.550449967E0,-3.734087467E0,8.167499900E-1
2.730854553E0,1.675987482E0,-3.792662382E0,7.550125122E-1
2.733357323E0,1.800424933E0,-3.819200039E0,6.997374892E-1
2.735860093E0,1.926100016E0,-3.811774969E0,6.432250142E-1
2.738362863E0,2.052737474E0,-3.768187523E0,5.816249847E-1
2.740865707E0,2.178274870E0,-3.708512545E0,5.176874995E-1
2.743368392E0,2.295287371E0,-3.636187553E0,4.559499919E-1
2.745871236E0,2.418762445E0,-3.540349960E0,3.975124955E-1
2.748373930E0,2.544300079E0,-3.403125048E0,3.431999981E-1
2.750876769E0,2.666812420E0,-3.232899904E0,2.835249901E-1
2.753379541E0,2.778462410E0,-3.049887419E0,2.271499932E-1
2.755882315E0,2.870037556E0,-2.878424883E0,1.739374995E-1
2.758385084E0,2.942362547E0,-2.703937531E0,1.229249984E-1
2.760887853E0,3.010425091E0,-2.518724918E0,7.493750006E-2
2.763390622E0,3.079725027E0,-2.328287601E0,4.619999975E-2
2.765893391E0,3.148887396E0,-2.115437508E0,1.333750039E-2
2.768396160E0,3.210487366E0,-1.882375002E0,-3.148749843E-2
2.770898929E0,3.255312443E0,-1.620574951E0,-8.359999955E-2
2.773401698E0,3.279787540E0,-1.309824944E0,-1.442375034E-1
2.775904467E0,3.287212372E0,-9.629124999E-1,-2.176624984E-1
2.778407236E0,3.291475058E0,-6.191624999E-1,-2.931500077E-1
2.780910005E0,3.289274931E0,-2.902624905E-1,-3.474625051E-1
2.783412793E0,3.291475058E0,2.681249939E-2,-3.858250082E-1
2.785915563E0,3.295737505E0,3.631374836E-1,-4.028750062E-1
2.788418333E0,3.299999952E0,7.271000147E-1,-4.006749988E-1
2.790921103E0,3.296700001E0,1.112237453E0,-3.900874853E-1
2.793423896E0,3.282949924E0,1.497512460E0,-3.783999979E-1
2.795926665E0,3.260537386E0,1.868899941E0,-3.719374835E-1
2.798429439E0,3.216949940E0,2.218012571E0,-3.528249860E-1
2.800932208E0,3.155212402E0,2.538387537E0,-3.379749954E-1
2.803434977E0,3.080687523E0,2.835249901E0,-3.379749954E-1
2.805937732E0,2.991312504E0,3.118362427E0,-3.474625051E-1
2.808440501E0,2.893412590E0,3.374799967E0,-3.548874855E-1
2.810943270E0,2.788087368E0,3.593975067E0,-3.613499999E-1
2.813446034E0,2.678499937E0,3.773824930E0,-3.624500036E-1
2.815949034E0,2.561349869E0,3.920675039E0,-3.559874892E-1
2.818451575E0,2.446399927E0,4.017612457E0,-3.400374949E-1
2.820954573E0,2.331587553E0,4.045249939E0,-3.187249899E-1
2.823457113E0,2.197387457E0,4.000562668E0,-2.921875119E-1
2.825960111E0,2.059062481E0,3.884512424E0,-2.591874897E-1
2.828462882E0,1.919637442E0,3.716350079E0,-2.250874937E-1
2.830965652E0,1.782412529E0,3.508862495E0,-1.857624948E-1
2.833468421E0,1.648350000E0,3.274699926E0,-1.453374922E-1
2.835971190E0,1.525974989E0,3.034212589E0,-1.091749966E-1
2.838473992E0,1.417349935E0,2.784100056E0,-7.713750005E-2
2.840976762E0,1.306662440E0,2.520237446E0,-3.355000168E-2
2.843479531E0,1.201337457E0,2.244549990E0,1.539999992E-2
2.845982300E0,1.106600046E0,1.966799974E0,7.919999957E-2
2.848485069E0,1.017225027E0,1.701837540E0,1.611499935E-1
2.850987838E0,9.363750219E-1,1.441137433E0,2.590500116E-1
2.853490622E0,8.575875163E-1,1.182500005E0,3.645125031E-1
2.855993391E0,7.873250246E-1,9.377499819E-1,4.676375091E-1
2.858496169E0,7.298499942E-1,7.228375077E-1,5.655375123E-1
2.860998938E0,6.936874986E-1,5.450500250E-1,6.517499685E-1
2.863501707E0,6.638500094E-1,3.961375058E-1,7.251750231E-1
2.866004548E0,6.489999890E-1,2.854500115E-1,7.848500013E-1
2.868507242E0,6.521624923E-1,2.172500044E-1,8.284375072E-1
2.871010009E0,6.777374744E-1,1.970375031E-1,8.571749926E-1
2.873512856E0,7.203624845E-1,2.140875012E-1,8.773875237E-1
2.876015550E0,7.702749968E-1,2.598749995E-1,8.890749812E-1
2.878518394E0,8.353124857E-1,3.321999907E-1,8.933374882E-1
2.881021165E0,9.054374695E-1,4.215750098E-1,9.018625021E-1
2.883523935E0,9.746000171E-1,5.237374902E-1,9.083250165E-1
2.886026704E0,1.042799950E0,6.153125167E-1,9.231749773E-1
2.888529473E0,1.104537487E0,6.909375191E-1,9.380249977E-1
2.891032228E0,1.152387500E0,7.515749931E-1,9.615374804E-1
2.893534997E0,1.197075009E0,7.951624990E-1,9.880750179E-1
2.896037766E0,1.232137442E0,8.079500198E-1,1.015712500E0
2.898540530E0,1.265137434E0,8.005250096E-1,1.042387486E0
2.901043299E0,1.285349965E0,7.738500237E-1,1.072224975E0
2.903546096E0,1.301300049E0,7.206375003E-1,1.098762512E0
2.906048865E0,1.306662440E0,6.472125053E-1,1.120074987E0
2.908551634E0,1.303499937E0,5.482124686E-1,1.139187455E0
2.911054393E0,1.291812539E0,4.311999977E-1,1.159399986E0
2.913557162E0,1.267337441E0,3.066250086E-1,1.179612517E0
2.916060162E0,1.239699960E0,1.768250018E-1,1.190337539E0
2.918562934E0,1.201337457E0,4.702499881E-2,1.204087496E0
2.921065472E0,1.158712506E0,-6.998749822E-2,1.217975020E0
2.923568239E0,1.108799934E0,-1.711875051E-1,1.231724977E0
2.926071014E0,1.054487467E0,-2.574000061E-1,1.248775005E0
2.928573783E0,1.003337502E0,-3.190000057E-1,1.271187544E0
2.931076783E0,9.512249827E-1,-3.627249897E-1,1.294562459E0
2.933579554E0,8.948500156E-1,-3.914625049E-1,1.314774990E0
2.936082323E0,8.373749852E-1,-3.988874853E-1,1.336087465E0
2.938585093E0,7.778375149E-1,-3.892624974E-1,1.353137493E0
2.941087862E0,7.149999738E-1,-3.712500036E-1,1.360562444E0
2.943590631E0,6.532624960E-1,-3.456749916E-1,1.362625003E0
2.946093400E0,5.904250145E-1,-3.073124886E-1,1.352037549E0
2.948596156E0,5.340499878E-1,-2.605625093E-1,1.331825018E0
2.951098925E0,4.776749909E-1,-2.008875012E-1,1.310512543E0
2.953601694E0,4.244624972E-1,-1.317249984E-1,1.280812502E0
2.956104443E0,3.797749877E-1,-6.146249920E-2,1.241349936E0
2.958607212E0,3.414124846E-1,5.499999970E-3,1.199825048E0
2.961109981E0,3.095124960E-1,7.892499864E-2,1.164762497E0
2.963612745E0,2.903999984E-1,1.534499973E-1,1.138087511E0
2.966115514E0,2.765125036E-1,2.289374918E-1,1.105087519E0
2.968618283E0,2.605625093E-1,3.003000021E-1,1.057237506E0
2.971121053E0,2.340250015E-1,3.418250084E-1,9.902749658E-1
2.973623838E0,2.084500045E-1,3.705624938E-1,9.231749773E-1
2.976126608E0,1.797125041E-1,3.896749914E-1,8.582749963E-1
2.978629377E0,1.530375034E-1,3.993000090E-1,7.943375111E-1
2.981132156E0,1.285624951E-1,4.078249931E-1,7.336999774E-1
2.983635001E0,1.009249985E-1,4.215750098E-1,6.752625108E-1
2.986137695E0,7.218749821E-2,4.343625009E-1,6.155874729E-1
2.988640505E0,4.661250114E-2,4.471499920E-1,5.612750053E-1
2.991143276E0,1.691249944E-2,4.630999863E-1,5.123249888E-1
2.993646046E0,-1.608750038E-2,4.855124950E-1,4.655750096E-1
2.996148815E0,-4.702499881E-2,5.163124800E-1,4.186874926E-1
2.998651584E0,-8.635000139E-2,5.418875217E-1,3.740000129E-1
3.001154353E0,-1.247124970E-1,5.641624928E-1,3.304125071E-1
3.003657122E0,-1.671999991E-1,5.823125243E-1,2.877874970E-1
3.006159891E0,-2.129874974E-1,5.928999782E-1,2.463999987E-1
3.008662660E0,-2.587749958E-1,5.993624926E-1,2.006125003E-1
3.011165434E0,-3.055250049E-1,6.004624963E-1,1.601874977E-1
3.013668203E0,-3.481499851E-1,6.004624963E-1,1.197625026E-1
3.016170972E0,-3.885749876E-1,5.845124722E-1,7.713750005E-2
3.018673952E0,-4.311999977E-1,5.557749867E-1,2.928750031E-2
3.021176492E0,-4.620000124E-1,5.270375013E-1,-1.649999991E-2
3.023679490E0,-4.886749983E-1,4.940375090E-1,-6.008749828E-2
3.026182022E0,-5.226374865E-1,4.482499957E-1,-1.038125008E-1
3.028685020E0,-5.609999895E-1,3.876124918E-1,-1.442375034E-1
3.031187791E0,-5.950999856E-1,3.162499964E-1,-1.835625023E-1
3.033690348E0,-6.258999705E-1,2.459875047E-1,-2.208250016E-1
3.036193321E0,-6.578000188E-1,1.875499934E-1,-2.591874897E-1
3.038696093E0,-6.919000149E-1,1.352999955E-1,-3.016749918E-1
3.041198862E0,-7.302625179E-1,6.407500058E-2,-3.431999981E-1
3.043701631E0,-7.781124711E-1,-2.323750034E-2,-3.921499848E-1
3.046204400E0,-8.387500048E-1,-1.137124971E-1,-4.422000051E-1
3.048707170E0,-9.090124965E-1,-1.923625022E-1,-4.922499955E-1
3.051209939E0,-9.952250123E-1,-2.540999949E-1,-5.465624928E-1
3.053712708E0,-1.090924978E0,-2.978250086E-1,-5.964750051E-1
3.056215477E0,-1.208075047E0,-3.201000094E-1,-6.539499760E-1
3.058718246E0,-1.339937449E0,-3.286249936E-1,-7.167875171E-1
3.061221001E0,-1.483624935E0,-3.180375099E-1,-7.731624842E-1
3.063723770E0,-1.646425009E0,-2.956250012E-1,-8.285750151E-1
3.066226615E0,-1.826274991E0,-2.754124999E-1,-8.892124891E-1
3.068729310E0,-2.025374889E0,-2.540999949E-1,-9.519125223E-1
3.071232130E0,-2.234925032E0,-2.264624983E-1,-1.005125046E0
3.073734891E0,-2.447774887E0,-1.966249943E-1,-1.050912499E0
3.076237660E0,-2.661725044E0,-1.786125004E-1,-1.092437506E0
3.078740429E0,-2.867150068E0,-1.817750037E-1,-1.140287519E0
3.081243199E0,-3.061850071E0,-2.094125003E-1,-1.187175035E0
3.083745973E0,-3.244862556E0,-2.637250125E-1,-1.229662538E0
3.086248742E0,-3.417287588E0,-3.434749842E-1,-1.269124985E0
3.088751511E0,-3.565237522E0,-4.339500070E-1,-1.316974998E0
3.091254280E0,-3.682387590E0,-5.318499804E-1,-1.365924954E0
3.093757049E0,-3.768599987E0,-6.330500245E-1,-1.414875031E0
3.096259818E0,-3.828137398E0,-7.404375076E-1,-1.462725043E0
3.098762587E0,-3.855774879E0,-8.342124820E-1,-1.508512497E0
3.101265356E0,-3.858937502E0,-9.107999802E-1,-1.553200006E0
3.103768125E0,-3.849449873E0,-9.640125036E-1,-1.603250027E0
3.106270894E0,-3.836662531E0,-9.970124960E-1,-1.644775033E0
3.108773855E0,-3.815350056E0,-1.010762453E0,-1.685199976E0
3.111276395E0,-3.782350063E0,-9.905499816E-1,-1.721362472E0
3.113779388E0,-3.752512455E0,-9.341750145E-1,-1.755462527E0
3.116282160E0,-3.727074862E0,-8.661124706E-1,-1.787362456E0
3.118784929E0,-3.711124897E0,-7.979124784E-1,-1.822425008E0
3.121287708E0,-3.707824945E0,-7.489625216E-1,-1.855425000E0
3.123790477E0,-3.719650030E0,-7.107374668E-1,-1.873574972E0
3.126293247E0,-3.731337547E0,-6.755374670E-1,-1.887325048E0
3.128796021E0,-3.732300043E0,-6.415749788E-1,-1.901212454E0
3.131298790E0,-3.731337547E0,-6.106374860E-1,-1.917162538E0
3.133801559E0,-3.724874973E0,-6.011499763E-1,-1.937374949E0
3.136304328E0,-3.716350079E0,-5.968874693E-1,-1.956624985E0
3.138807097E0,-3.702600002E0,-5.713124871E-1,-1.982062459E0
3.141309866E0,-3.669600010E0,-5.244249701E-1,-2.004474878E0
3.143812635E0,-3.613224983E0,-4.276250005E-1,-2.011899948E0
3.146315404E0,-3.534437418E0,-2.466749996E-1,-2.001312494E0
3.148818173E0,-3.433374882E0,2.997500077E-2,-1.990587473E0
3.151320942E0,-3.314162493E0,3.449875116E-1,-1.982062459E0
3.153823711E0,-3.171575069E0,6.791124940E-1,-1.968312502E0
3.156326480E0,-3.023624897E0,1.049537539E0,-1.944800019E0
3.158829235E0,-2.874574900E0,1.442237496E0,-1.910837531E0
3.161332081E0,-2.724562407E0,1.828474998E0,-1.863950014E0
3.163834775E0,-2.573450089E0,2.209487438E0,-1.812937498E0
3.166337624E0,-2.418075085E0,2.579775095E0,-1.770312548E0
3.168840396E0,-2.258437395E0,2.911837578E0,-1.742674947E0
3.171343165E0,-2.080650091E0,3.210900068E0,-1.734149933E0
3.173845934E0,-1.867799997E0,3.439699888E0,-1.707474947E0
3.176348703E0,-1.620987535E0,3.568537474E0,-1.662787437E0
3.178851473E0,-1.368812442E0,3.603600025E0,-1.660724998E0
3.181354242E0,-1.116500020E0,3.541862488E0,-1.685199976E0
3.183857011E0,-8.578624725E-1,3.405600071E0,-1.733049989E0
3.186359780E0,-5.993624926E-1,3.198112488E0,-1.825724959E0
3.188862549E0,-3.470500112E-1,2.914999962E0,-1.982062459E0
3.191365318E0,-1.247124970E-1,2.498924971E0,-2.237537384E0
3.193868087E0,8.497499675E-2,2.024275064E0,-2.430175066E0
3.196370856E0,2.785750031E-1,1.589087486E0,-2.521612406E0
3.198873625E0,4.510000050E-1,1.219762444E0,-2.523812532E0
3.201376389E0,5.926250219E-1,9.323874712E-1,-2.454649925E0
3.203879389E0,6.925874949E-1,7.174749970E-1,-2.342862606E0
3.206382160E0,7.394750118E-1,5.684249997E-1,-2.194912434E0
3.208884915E0,7.320500016E-1,5.057250261E-1,-2.031012535E0
3.211387684E0,6.436374784E-1,5.354250073E-1,-1.872475028E0
3.213890468E0,4.595249891E-1,6.397874951E-1,-1.729887486E0
3.216393237E0,1.967625022E-1,8.079500198E-1,-1.607512474E0
3.218896006E0,-9.913749993E-2,1.001549959E0,-1.504250050E0
3.221398804E0,-3.833499849E-1,1.156924963E0,-1.414875031E0
3.223901573E0,-6.429499984E-1,1.254824996E0,-1.342550039E0
3.226404342E0,-8.802750111E-1,1.305974960E0,-1.262662530E0
3.228907111E0,-1.092025042E0,1.323024988E0,-1.192399979E0
3.231409956E0,-1.278337479E0,1.300612450E0,-1.122274995E0
3.233912727E0,-1.430412531E0,1.247400045E0,-1.056275010E0
3.236415497E0,-1.549625039E0,1.173974991E0,-9.945374727E-1
3.238918266E0,-1.625249982E0,1.092025042E0,-9.391250014E-1
3.241421035E0,-1.683687449E0,1.019700050E0,-8.827499747E-1
3.243923804E0,-1.729475021E0,9.568625093E-1,-8.252750039E-1
3.246426573E0,-1.747624993E0,8.919624686E-1,-7.646374702E-1
3.248929337E0,-1.745424986E0,8.324249983E-1,-7.028999925E-1
3.251432106E0,-1.728512526E0,7.749499679E-1,-6.476249695E-1
3.253934885E0,-1.697574973E0,6.972625256E-1,-5.964750051E-1
3.256437654E0,-1.659212470E0,6.164125204E-1,-5.475249887E-1
3.258940456E0,-1.616724968E0,5.279999971E-1,-4.996750057E-1
3.261443456E0,-1.576300025E0,4.280374944E-1,-4.603500068E-1
3.263946227E0,-1.542199969E0,3.290374875E-1,-4.325749874E-1
3.266448996E0,-1.506037474E0,2.226125002E-1,-4.102999866E-1
3.268951766E0,-1.474137545E0,1.023000032E-1,-3.953124881E-1
3.271454535E0,-1.459149957E0,-5.623750016E-2,-3.836250007E-1
3.273957304E0,-1.453925014E0,-2.403499931E-1,-3.783999979E-1
3.276460073E0,-1.455987453E0,-4.404124916E-1,-3.761999905E-1
3.278962842E0,-1.455987453E0,-6.447374821E-1,-3.708375096E-1
3.281465616E0,-1.444299936E0,-8.544250131E-1,-3.645125031E-1
3.283968385E0,-1.424087524E0,-1.063974977E0,-3.708375096E-1
3.286471154E0,-1.394250035E0,-1.279987454E0,-3.804624975E-1
3.288973999E0,-1.364549994E0,-1.539724946E0,-3.804624975E-1
3.291476684E0,-1.350662470E0,-1.838787436E0,-3.570874929E-1
3.293979528E0,-1.331550002E0,-2.158062458E0,-3.187249899E-1
3.296482232E0,-1.294287443E0,-2.476237535E0,-2.910875082E-1
3.298985076E0,-1.239974976E0,-2.760312557E0,-2.899875045E-1
3.301487848E0,-1.175074935E0,-2.984849930E0,-3.389374912E-1
3.303990617E0,-1.112237453E0,-3.100899935E0,-4.347749949E-1
3.306493386E0,-1.051599979E0,-3.122212410E0,-5.730999708E-1
3.308996155E0,-9.941250086E-1,-3.081787586E0,-7.316374779E-1
3.311498924E0,-9.601625204E-1,-2.962574959E0,-8.955374956E-1
3.314001707E0,-9.440749884E-1,-2.773099899E0,-1.049812436E0
3.316504476E0,-9.355499744E-1,-2.537975073E0,-1.193500042E0
3.319007245E0,-9.420124888E-1,-2.262287378E0,-1.315874934E0
3.321510014E0,-9.579625130E-1,-1.965425014E0,-1.409512520E0
3.324013013E0,-9.739124775E-1,-1.680250049E0,-1.471249938E0
3.326515554E0,-9.994875193E-1,-1.430137515E0,-1.495725036E0
3.329018552E0,-1.023962498E0,-1.239562511E0,-1.481974959E0
3.331521323E0,-1.045274973E0,-1.115124941E0,-1.426562548E0
3.334024092E0,-1.070712447E0,-1.044862509E0,-1.341449976E0
3.336526872E0,-1.093124986E0,-1.038537502E0,-1.250975013E0
3.339029641E0,-1.114437461E0,-1.092712522E0,-1.165862441E0
3.341532410E0,-1.140974998E0,-1.170400023E0,-1.093537450E0
3.344035188E0,-1.155962467E0,-1.246024966E0,-1.040325046E0
3.346537957E0,-1.153762460E0,-1.303499937E0,-1.016812444E0
3.349040726E0,-1.132449985E0,-1.324812531E0,-9.956374764E-1
3.351543495E0,-1.089962482E0,-1.310925007E0,-9.678624868E-1
3.354046269E0,-1.033587456E0,-1.282187462E0,-9.424250126E-1
3.356549048E0,-9.642875195E-1,-1.239562511E0,-9.211124778E-1
3.359051817E0,-8.877000213E-1,-1.202299953E0,-8.986999989E-1
3.361554586E0,-8.111125231E-1,-1.171499968E0,-8.721625209E-1
3.364057360E0,-7.376874685E-1,-1.151287436E0,-8.465874791E-1
3.366560206E0,-6.631624699E-1,-1.139600039E0,-8.263750076E-1
3.369062978E0,-5.928999782E-1,-1.132174969E0,-7.955750227E-1
3.371565747E0,-5.237374902E-1,-1.127912521E0,-7.668374777E-1
3.374068516E0,-4.599374831E-1,-1.127912521E0,-7.401624918E-1
3.376571285E0,-3.982000053E-1,-1.142762542E0,-7.199500203E-1
3.379074055E0,-3.396250010E-1,-1.166137457E0,-7.136250138E-1
3.381576824E0,-2.800875008E-1,-1.180024981E0,-6.997374892E-1
3.384079593E0,-2.257750034E-1,-1.190612435E0,-6.784250140E-1
3.386582382E0,-1.704999954E-1,-1.195974946E0,-6.454250216E-1
3.389085380E0,-1.119249985E-1,-1.192812443E0,-5.964750051E-1
3.391588152E0,-5.128749833E-2,-1.174662471E0,-5.400999784E-1
3.394090897E0,1.471249945E-2,-1.144824982E0,-4.783625007E-1
3.396593666E0,8.071249723E-2,-1.119387507E0,-4.145624936E-1
3.399096435E0,1.487749964E-1,-1.094912529E0,-3.389374912E-1
3.401599204E0,2.212374955E-1,-1.063974977E0,-2.527250051E-1
3.404101974E0,2.935625017E-1,-1.030012488E0,-1.687124968E-1
3.406604748E0,3.616249859E-1,-9.873874784E-1,-8.030000329E-2
3.409107497E0,4.318875074E-1,-9.363750219E-1,1.113750041E-2
3.411610341E0,5.032500029E-1,-8.788999915E-1,9.955000132E-2
3.414113113E0,5.755749941E-1,-8.245875239E-1,1.718750000E-1
3.416615882E0,6.393749714E-1,-7.777000070E-1,2.452999949E-1
3.419118651E0,7.075750232E-1,-7.404375076E-1,3.016749918E-1
3.421621420E0,7.745375037E-1,-7.096375227E-1,3.506250083E-1
3.424124190E0,8.342124820E-1,-6.797999740E-1,4.006749988E-1
3.426626959E0,8.841249943E-1,-6.393749714E-1,4.624125063E-1
3.429129728E0,9.310125113E-1,-5.926250219E-1,5.251125097E-1
3.431632497E0,9.671750069E-1,-5.436750054E-1,5.975750089E-1
3.434135252E0,9.981124997E-1,-5.053125024E-1,6.752625108E-1
3.436638021E0,1.020387530E0,-4.882625043E-1,7.475875020E-1
3.439141020E0,1.026712537E0,-4.967874885E-1,8.189499974E-1
3.441643569E0,1.022587538E0,-5.234624743E-1,8.859124780E-1
3.444146567E0,1.009799957E0,-5.681499839E-1,9.561749697E-1
3.446649353E0,9.842249751E-1,-6.223250031E-1,1.021075010E0
3.449151892E0,9.501249790E-1,-6.840624809E-1,1.083912492E0
3.451654890E0,9.107999802E-1,-7.469000220E-1,1.127499938E0
3.454157661E0,8.661124706E-1,-8.118000031E-1,1.157337546E0
3.456660430E0,8.171625137E-1,-8.575875163E-1,1.174387455E0
3.459163200E0,7.713750005E-1,-8.458999991E-1,1.166824937E0
3.461665969E0,7.266874909E-1,-8.075374961E-1,1.137125015E0
3.464168738E0,6.734749675E-1,-7.788000107E-1,1.092437506E0
3.466671507E0,5.935875177E-1,-7.383750081E-1,1.041287541E0
3.469174276E0,4.904625118E-1,-6.745749712E-1,9.860125184E-1
3.471677045E0,3.605250120E-1,-6.063749790E-1,9.220749736E-1
3.474179890E0,1.999250054E-1,-5.468375087E-1,8.465874791E-1
3.476682642E0,1.787500083E-2,-4.925250113E-1,7.657374740E-1
3.479185411E0,-1.704999954E-1,-4.287250042E-1,6.560124755E-1
3.481688181E0,-3.418250084E-1,-3.892624974E-1,5.028374791E-1
3.484190945E0,-4.716250002E-1,-4.063124955E-1,3.048374951E-1
3.486693714E0,-5.291000009E-1,-4.446749985E-1,7.603749633E-2
3.489196483E0,-5.099874735E-1,-5.201625228E-1,-1.824624985E-1
3.491699252E0,-4.152500033E-1,-6.797999740E-1,-4.538874924E-1
3.494202021E0,-2.576749921E-1,-8.820624948E-1,-7.071624994E-1
3.496705020E0,-6.613750011E-2,-1.075662494E0,-9.274374843E-1
3.499207791E0,1.285624951E-1,-1.201337457E0,-1.097800016E0
3.501710560E0,2.989250124E-1,-1.223612547E0,-1.202024937E0
3.504213330E0,4.361499846E-1,-1.145925045E0,-1.231862545E0
3.506716099E0,5.286874771E-1,-1.046924949E0,-1.193500042E0
3.509218868E0,5.787374973E-1,-9.458624721E-1,-1.099862456E0
3.511721637E0,5.989499688E-1,-8.724374771E-1,-9.678624868E-1
3.514224382E0,5.935875177E-1,-8.703749776E-1,-8.029999733E-1
3.516727151E0,5.670499802E-1,-9.224874973E-1,-6.199874878E-1
3.519229929E0,5.212625265E-1,-1.004437447E0,-4.240500033E-1
3.521732698E0,4.584249854E-1,-1.100137472E0,-2.356749922E-1
3.524235543E0,3.849999905E-1,-1.189649940E0,-6.861250103E-2
3.526738238E0,3.106124997E-1,-1.267337441E0,7.177499682E-2
3.529241082E0,2.392500043E-1,-1.324812531E0,1.867250055E-1
3.531743853E0,1.711875051E-1,-1.361937523E0,2.697750032E-1
3.534246613E0,1.115124971E-1,-1.393975019E0,3.176249862E-1
3.536749383E0,6.159999967E-2,-1.417349935E0,3.378374875E-1
3.539252156E0,2.529999986E-2,-1.423674941E0,3.335750103E-1
3.541754925E0,1.264999993E-2,-1.413087487E0,3.133625090E-1
3.544257694E0,1.044999994E-2,-1.397137523E0,2.803624868E-1
3.546760463E0,2.007500082E-2,-1.383249998E0,2.431000024E-1
3.549263232E0,5.197500065E-2,-1.345987439E0,2.037750036E-1
3.551766231E0,9.776250273E-2,-1.281087518E0,1.772374958E-1
3.554269002E0,1.583999991E-1,-1.191712499E0,1.633500010E-1
3.556771771E0,2.275625020E-1,-1.083225012E0,1.463000029E-1
3.559274540E0,3.073124886E-1,-9.575499892E-1,1.442375034E-1
3.561777306E0,3.840374947E-1,-8.320124745E-1,1.537249982E-1
3.564280075E0,4.552625120E-1,-7.117000222E-1,1.622499973E-1
3.566782919E0,5.191999674E-1,-6.106374860E-1,1.696749926E-1
3.569285613E0,5.766749978E-1,-5.255249739E-1,1.846625060E-1
3.571788453E0,6.256250143E-1,-4.541625082E-1,1.889249980E-1
3.574291147E0,6.660500169E-1,-3.849999905E-1,1.792999953E-1
3.576794005E0,7.022125125E-1,-3.115749955E-1,1.484999955E-1
3.579296776E0,7.287499905E-1,-2.243999988E-1,1.047749966E-1
3.581799546E0,7.522624731E-1,-1.168750003E-1,4.729999974E-2
3.584302330E0,7.628499866E-1,2.337499987E-3,-2.076249942E-2
3.586805099E0,7.480000257E-1,1.640374959E-1,-9.955000132E-2
3.589307868E0,7.031750083E-1,3.854124844E-1,-1.920875013E-1
3.591810637E0,6.308500171E-1,6.738874912E-1,-2.836624980E-1
3.594313406E0,5.255249739E-1,1.009112477E0,-3.772999942E-1
3.596816175E0,3.892624974E-1,1.359187484E0,-4.624125063E-1
3.599318944E0,2.455749959E-1,1.695512533E0,-5.262125134E-1
3.601821713E0,1.072499976E-1,1.965837479E0,-5.784624815E-1
3.604324712E0,-3.217500076E-2,2.137162447E0,-6.018375158E-1
3.606827483E0,-1.555124968E-1,2.229700089E0,-6.072000265E-1
3.609330252E0,-2.609750032E-1,2.273287535E0,-5.816249847E-1
3.611833021E0,-3.471874893E-1,2.254174948E0,-5.326749682E-1
3.614335790E0,-4.248749912E-1,2.157375097E0,-4.655750096E-1
3.616838560E0,-5.003625154E-1,2.009424925E0,-3.900874853E-1
3.619341315E0,-5.652624965E-1,1.834937453E0,-3.155624866E-1
3.621844084E0,-6.164125204E-1,1.665675044E0,-2.452999949E-1
3.624346928E0,-6.355249882E-1,1.521987438E0,-1.750375032E-1
3.626849713E0,-6.258999705E-1,1.408137441E0,-9.955000132E-2
3.629352483E0,-5.886374712E-1,1.334712505E0,-1.649999991E-2
3.631855257E0,-5.322625041E-1,1.293187499E0,7.081250101E-2
3.634358026E0,-4.460499883E-1,1.278337479E0,1.611499935E-1
3.636860795E0,-3.503499925E-1,1.278337479E0,2.484624982E-1
3.639363564E0,-2.545124888E-1,1.277237535E0,3.293125033E-1
3.641866333E0,-1.630750000E-1,1.261287451E0,3.889875114E-1
3.644369102E0,-7.259999961E-2,1.230350018E0,4.431625009E-1
3.646871871E0,2.213750035E-2,1.187862515E0,4.837250113E-1
3.649374640E0,1.254000068E-1,1.122962475E0,5.091624856E-1
3.651877409E0,2.455749959E-1,1.032487512E0,5.262125134E-1
3.654380409E0,3.883000016E-1,9.207000136E-1,5.293750167E-1
3.656882949E0,5.468375087E-1,7.951624990E-1,5.251125097E-1
3.659385966E0,7.149999738E-1,6.705874801E-1,5.176874995E-1
3.661888738E0,8.713374734E-1,5.631999969E-1,5.028374791E-1
3.664391507E0,1.010762453E0,4.801499844E-1,4.911499918E-1
3.666894276E0,1.123649955E0,4.300999939E-1,4.846875072E-1
3.669397045E0,1.208762527E0,4.184125066E-1,4.889499843E-1
3.671899814E0,1.270499945E0,4.534749985E-1,5.017374754E-1
3.674402594E0,1.304462552E0,5.248374939E-1,5.198875070E-1
3.676905438E0,1.315187454E0,6.408874989E-1,5.486249924E-1
3.679408194E0,1.306662440E0,7.886999846E-1,5.890499949E-1
3.681910963E0,1.289612532E0,9.739124775E-1,6.369000077E-1
3.684413733E0,1.274762511E0,1.175074935E0,7.039999962E-1
3.686916502E0,1.264037490E0,1.381462455E0,7.731624842E-1
3.689419271E0,1.250287533E0,1.585787535E0,8.551124930E-1
3.691922040E0,1.235299945E0,1.777462482E0,9.391250014E-1
3.694424809E0,1.214125037E0,1.949749947E0,1.019012451E0
3.696927808E0,1.195974946E0,2.104162455E0,1.093400002E0
3.699430348E0,1.181125045E0,2.232862473E0,1.158437490E0
3.701933346E0,1.169299960E0,2.345750093E0,1.219074965E0
3.704435886E0,1.165174961E0,2.448874950E0,1.271187544E0
3.706938654E0,1.161875010E0,2.535087585E0,1.314774990E0
3.709441674E0,1.154449940E0,2.588299990E0,1.347774982E0
3.711944445E0,1.152387500E0,2.623499870E0,1.367025018E0
3.714447145E0,1.154449940E0,2.650037527E0,1.379675031E0
3.716949914E0,1.152387500E0,2.661725044E0,1.389299989E0
3.719452675E0,1.150187492E0,2.648937464E0,1.393562436E0
3.721955444E0,1.149087548E0,2.616075039E0,1.394662499E0
3.724458288E0,1.147024989E0,2.556400061E0,1.389299989E0
3.726961058E0,1.140562534E0,2.473350048E0,1.379675031E0
3.729463828E0,1.127912521E0,2.364862442E0,1.375412464E0
3.731966597E0,1.108662486E0,2.227637529E0,1.373350024E0
3.734469366E0,1.058750033E0,2.024275064E0,1.375412464E0
3.736972135E0,9.735000134E-1,1.758212447E0,1.381875038E0
3.739474904E0,8.820624948E-1,1.475237489E0,1.395762444E0
3.741977673E0,7.841625214E-1,1.186762452E0,1.409512520E0
3.744480672E0,6.840624809E-1,8.908625245E-1,1.418037534E0
3.746983212E0,5.765374899E-1,5.876749754E-1,1.432887435E0
3.749486210E0,4.680500031E-1,2.864125073E-1,1.436187506E0
3.751988981E0,3.616249859E-1,-7.287499961E-3,1.433987498E0
3.754491747E0,2.679874897E-1,-2.733500004E-1,1.426562548E0
3.756994516E0,2.030874938E-1,-5.010499954E-1,1.411712527E0
3.759497285E0,1.476749927E-1,-7.170624733E-1,1.390399933E0
3.762000054E0,1.040875018E-1,-9.490249753E-1,1.367987514E0
3.764502833E0,8.181250095E-2,-1.190612435E0,1.354237437E0
3.767005602E0,9.556250274E-2,-1.422712445E0,1.340350032E0
3.769508371E0,1.359875053E-1,-1.624837518E0,1.327562451E0
3.772011215E0,2.073500007E-1,-1.800424933E0,1.314774990E0
3.774513987E0,2.998875082E-1,-1.982475042E0,1.299924970E0
3.777016756E0,4.052124918E-1,-2.176074982E0,1.275449991E0
3.779519525E0,5.308874846E-1,-2.369812489E0,1.247812510E0
3.782022294E0,6.723750234E-1,-2.560250044E0,1.219074965E0
3.784525063E0,8.234875202E-1,-2.751787424E0,1.179612517E0
3.787028032E0,9.746000171E-1,-2.946624994E0,1.140287519E0
3.789530573E0,1.119387507E0,-3.149849892E0,1.100962520E0
3.792033571E0,1.257712483E0,-3.353075027E0,1.063699961E0
3.794536347E0,1.401399970E0,-3.520274878E0,1.013649940E0
3.797039116E0,1.545087457E0,-3.647875071E0,9.530124664E-1
3.799541858E0,1.688637495E0,-3.739449978E0,8.890749812E-1
3.802044627E0,1.831362486E0,-3.801187515E0,8.167499900E-1
3.804547396E0,1.964324951E0,-3.833087444E0,7.475875020E-1
3.807050189E0,2.095225096E0,-3.829925060E0,6.762250066E-1
3.809552958E0,2.225024939E0,-3.784137487E0,6.070625186E-1
3.812055727E0,2.354825020E0,-3.697925091E0,5.400999784E-1
3.814558496E0,2.475137472E0,-3.579812527E0,4.761624932E-1
3.817061341E0,2.579499960E0,-3.450974941E0,4.112625122E-1
3.819564112E0,2.667774916E0,-3.295599937E0,3.517250121E-1
3.822066882E0,2.752887487E0,-3.110524893E0,2.942500114E-1
3.824569651E0,2.827412367E0,-2.903037548E0,2.378749996E-1
3.827072420E0,2.889149904E0,-2.676300049E0,1.846625060E-1
3.829575384E0,2.942362547E0,-2.434712410E0,1.399749964E-1
3.832078155E0,2.978524923E0,-2.177175045E0,1.005124971E-1
3.834580925E0,2.997637510E0,-1.909049988E0,6.435000151E-2
3.837083699E0,3.006162405E0,-1.628000021E0,3.451250121E-2
3.839586468E0,3.006162405E0,-1.327975035E0,9.074999951E-3
3.842089251E0,3.000799894E0,-1.007599950E0,-1.966249943E-2
3.844592021E0,2.994474888E0,-6.660500169E-1,-5.059999973E-2
3.847094790E0,2.974262476E0,-3.212000132E-1,-7.507500052E-2
3.849597559E0,2.925312519E0,1.196249947E-2,-1.016125008E-1
3.852100333E0,2.855050087E0,3.247750103E-1,-1.208624989E-1
3.854603148E0,2.774199963E0,6.153125167E-1,-1.271875054E-1
3.857105843E0,2.692250013E0,8.824750185E-1,-1.208624989E-1
3.859608687E0,2.610300064E0,1.118700027E0,-1.132999957E-1
3.862111458E0,2.541137457E0,1.337875009E0,-1.058750004E-1
3.864614227E0,2.480499983E0,1.542199969E0,-1.016125008E-1
3.867116997E0,2.433612585E0,1.734837532E0,-1.058750004E-1
3.869619766E0,2.396349907E0,1.915787458E0,-1.165999994E-1
3.872122535E0,2.371875048E0,2.075424910E0,-1.303499937E-1
3.874625533E0,2.359087467E0,2.223375082E0,-1.453374922E-1
3.877128304E0,2.352762461E0,2.350975037E0,-1.570249945E-1
3.879631055E0,2.359087467E0,2.476650000E0,-1.750375032E-1
3.882133824E0,2.367612600E0,2.591599941E0,-1.857624948E-1
3.884636647E0,2.375174999E0,2.697887421E0,-1.815000027E-1
3.887139416E0,2.387825012E0,2.784100056E0,-1.718750000E-1
3.889642186E0,2.395387411E0,2.845837593E0,-1.442375034E-1
3.892144955E0,2.398550034E0,2.870312452E0,-1.155000031E-1
3.894647748E0,2.403912544E0,2.860825062E0,-8.139999956E-2
3.897150592E0,2.415600061E0,2.818199873E0,-3.987500072E-2
3.899653286E0,2.425087452E0,2.745874882E0,-1.649999991E-3
3.902156145E0,2.425087452E0,2.644675016E0,3.451250121E-2
3.904658916E0,2.403912544E0,2.533025026E0,6.861250103E-2
3.907161685E0,2.367612600E0,2.418075085E0,1.058750004E-1
3.909664454E0,2.320862532E0,2.293499947E0,1.494625062E-1
3.912167224E0,2.256925106E0,2.164799929E0,1.995124966E-1
3.914670222E0,2.176074982E0,2.041325092E0,2.538250089E-1
3.917172993E0,2.079274893E0,1.925274968E0,3.123999834E-1
3.919675762E0,1.971750021E0,1.814725041E0,3.740000129E-1
3.922178531E0,1.855837464E0,1.700737476E0,4.357374907E-1
3.924681296E0,1.732362509E0,1.573137522E0,4.922499955E-1
3.927184065E0,1.601462483E0,1.444299936E0,5.443624854E-1
3.929686834E0,1.476887465E0,1.316562533E0,5.975750089E-1
3.932189589E0,1.352450013E0,1.189924955E0,6.528499722E-1
3.934692358E0,1.236400008E0,1.068650007E0,7.028999925E-1
3.937195127E0,1.125712514E0,9.559000134E-1,7.507500052E-1
3.939697972E0,1.026712537E0,8.589624763E-1,7.976375222E-1
3.942200733E0,9.405000210E-1,7.738500237E-1,8.412249684E-1
3.944703502E0,8.661124706E-1,6.908000112E-1,8.816499710E-1
3.947206272E0,7.979124784E-1,6.153125167E-1,9.211124778E-1
3.949709056E0,7.447000146E-1,5.396875143E-1,9.583749771E-1
3.952212054E0,7.053750157E-1,4.620000124E-1,9.902749658E-1
3.954714820E0,6.723750234E-1,3.982000053E-1,1.022174954E0
3.957217589E0,6.542249918E-1,3.396250010E-1,1.049812436E0
3.959720359E0,6.436374784E-1,2.886124849E-1,1.077450037E0
3.962223128E0,6.478999853E-1,2.513499856E-1,1.098762512E0
3.964725897E0,6.681125164E-1,2.226125002E-1,1.114712477E0
3.967228666E0,6.979500055E-1,2.001999915E-1,1.124337435E0
3.969731435E0,7.352125049E-1,1.790249944E-1,1.132862449E0
3.972234204E0,7.830625176E-1,1.502874941E-1,1.139187455E0
3.974736973E0,8.351749778E-1,1.225124970E-1,1.145650029E0
3.977239818E0,8.926500082E-1,9.487500042E-2,1.153074980E0
3.979742603E0,9.512249827E-1,5.981250107E-2,1.163662553E0
3.982245373E0,1.010762453E0,1.608750038E-2,1.177549958E0
3.984748142E0,1.061912537E0,-3.382499889E-2,1.194599986E0
3.987250882E0,1.102337480E0,-9.350000322E-2,1.214812517E0
3.989753880E0,1.139600039E0,-1.595000029E-1,1.228562474E0
3.992256666E0,1.172600031E0,-2.243999988E-1,1.238187551E0
3.994759436E0,1.190612435E0,-2.861374915E-1,1.250975013E0
3.997262205E0,1.199137449E0,-3.478749990E-1,1.256337523E0
3.999764974E0,1.200237513E0,-3.988874853E-1,1.256337523E0
4.002267743E0,1.191712499E0,-4.404124916E-1,1.257300019E0
4.004770513E0,1.167237520E0,-4.648874998E-1,1.252074957E0
4.007273282E0,1.131075025E0,-4.606249928E-1,1.242449999E0
4.009776051E0,1.091612458E0,-4.372499883E-1,1.240387440E0
4.012278820E0,1.046924949E0,-3.775750101E-1,1.223337531E0
4.014781664E0,9.851874709E-1,-2.839374840E-1,1.198862553E0
4.017284421E0,9.043374658E-1,-1.689874977E-1,1.165862441E0
4.019787190E0,8.075374961E-1,-3.382499889E-2,1.121175051E0
4.022289959E0,7.000125051E-1,1.204499975E-1,1.072224975E0
4.024792714E0,5.850625038E-1,2.832500041E-1,1.025337458E0
4.027295484E0,4.680500031E-1,4.556750059E-1,9.817500114E-1
4.029798496E0,3.531000018E-1,6.269999743E-1,9.422875047E-1
4.032301267E0,2.477750033E-1,7.792124748E-1,9.040625095E-1
4.034804055E0,1.519374996E-1,9.186375141E-1,8.679000139E-1
4.037306824E0,7.108750194E-2,1.027125001E0,8.358625174E-1
4.039809594E0,-1.237499993E-3,1.107012510E0,8.061624765E-1
4.042312363E0,-6.187500060E-2,1.158025026E0,7.859500051E-1
4.044815132E0,-1.087625027E-1,1.178237438E0,7.699999809E-1
4.047317901E0,-1.438249946E-1,1.181399941E0,7.529500127E-1
4.049820745E0,-1.662375033E-1,1.160225034E0,7.390624881E-1
4.052323517E0,-1.810874939E-1,1.119799972E0,7.253124714E-1
4.054826286E0,-1.875499934E-1,1.054762483E0,7.134875059E-1
4.057329055E0,-1.918125004E-1,9.707499743E-1,6.997374892E-1
4.059831824E0,-1.938749999E-1,8.782125115E-1,6.880499721E-1
4.062334594E0,-1.896124929E-1,7.770124674E-1,6.699000001E-1
4.064837592E0,-1.832875013E-1,6.727874875E-1,6.476249695E-1
4.067340122E0,-1.683000028E-1,5.631999969E-1,6.198499799E-1
4.069843120E0,-1.502874941E-1,4.397250116E-1,5.922124982E-1
4.072345661E0,-1.417624950E-1,3.194124997E-1,5.538499951E-1
4.074848659E0,-1.289750040E-1,1.907124966E-1,5.059999824E-1
4.077351430E0,-1.236125007E-1,5.871250108E-2,4.538874924E-1
4.079854213E0,-1.300749928E-1,-6.902500242E-2,4.027374983E-1
4.082356982E0,-1.438249946E-1,-1.903000027E-1,3.548874855E-1
4.084859751E0,-1.566125005E-1,-2.903999984E-1,3.059374988E-1
4.087362610E0,-1.694000065E-1,-3.733125031E-1,2.527250051E-1
4.089865381E0,-1.821874976E-1,-4.467374980E-1,2.080374956E-1
4.092368150E0,-1.918125004E-1,-4.999499917E-1,1.644500047E-1
4.094870919E0,-2.023999989E-1,-5.308874846E-1,1.271875054E-1
4.097373689E0,-2.140875012E-1,-5.351499915E-1,8.992499858E-2
4.099876458E0,-2.311374992E-1,-5.191999674E-1,5.266249925E-2
4.102379227E0,-2.556124926E-1,-4.797374904E-1,1.856249943E-2
4.104881996E0,-2.897124887E-1,-3.999874890E-1,-1.113750041E-2
4.107384994E0,-3.355000019E-1,-2.850374877E-1,-3.891250119E-2
4.109887766E0,-3.918749988E-1,-1.476749927E-1,-7.287500054E-2
4.112390535E0,-4.695625007E-1,1.374999993E-4,-1.058750004E-1
4.114893319E0,-5.578374863E-1,1.502874941E-1,-1.451999992E-1
4.117396088E0,-6.579374671E-1,3.108874857E-1,-1.963499933E-1
4.119898927E0,-7.686250210E-1,4.662624896E-1,-2.441999912E-1
4.122401699E0,-8.877000213E-1,6.056874990E-1,-3.048374951E-1
4.124904468E0,-1.013375044E0,7.312250137E-1,-3.708375096E-1
4.127407237E0,-1.141112447E0,8.376500010E-1,-4.379374981E-1
4.129910020E0,-1.267750025E0,9.196000099E-1,-5.050374866E-1
4.132412790E0,-1.396450043E0,9.653875232E-1,-5.720000267E-1
4.134915559E0,-1.523087502E0,9.803749919E-1,-6.358000040E-1
4.137418347E0,-1.653987527E0,9.685499668E-1,-6.965749860E-1
4.139921116E0,-1.789150000E0,9.292249680E-1,-7.444249988E-1
4.142424114E0,-1.928575039E0,8.643249869E-1,-7.848500013E-1
4.144926886E0,-2.075424910E0,7.823749781E-1,-8.210124969E-1
4.147429646E0,-2.227637529E0,6.876375079E-1,-8.529124856E-1
4.149932415E0,-2.391537428E0,5.854749680E-1,-8.721625209E-1
4.152435184E0,-2.557499886E0,4.747875035E-1,-8.933374882E-1
4.154938028E0,-2.728825092E0,3.460874856E-1,-9.168499708E-1
4.157440800E0,-2.900150061E0,2.066625059E-1,-9.444875121E-1
4.159943569E0,-3.066250086E0,5.444999784E-2,-9.700624943E-1
4.162446338E0,-3.223687410E0,-1.137124971E-1,-1.000862479E0
4.164949107E0,-3.373699903E0,-2.924624979E-1,-1.041287541E0
4.167451877E0,-3.517387390E0,-4.765749872E-1,-1.092437506E0
4.169954646E0,-3.646224976E0,-6.649500132E-1,-1.143450022E0
4.172457415E0,-3.754712582E0,-8.331124783E-1,-1.194599986E0
4.174960398E0,-3.848350048E0,-9.703375101E-1,-1.252074957E0
4.177463169E0,-3.917512417E0,-1.075662494E0,-1.310512543E0
4.179965939E0,-3.966462374E0,-1.153349996E0,-1.374449968E0
4.182468694E0,-4.003725052E0,-1.221549988E0,-1.452137470E0
4.184971538E0,-4.031499863E0,-1.286450028E0,-1.539312482E0
4.187474232E0,-4.042087555E0,-1.322612524E0,-1.621262550E0
4.189977018E0,-4.027237415E0,-1.306662440E0,-1.696887493E0
4.192479865E0,-3.992037535E0,-1.250287533E0,-1.764950037E0
4.194982559E0,-3.956974983E0,-1.172600031E0,-1.827787519E0
4.197485393E0,-3.931400061E0,-1.084187508E0,-1.884162545E0
4.199988164E0,-3.904725075E0,-9.916499853E-1,-1.938475013E0
4.202490944E0,-3.877087593E0,-9.000750184E-1,-1.986325026E0
4.204993713E0,-3.849449873E0,-8.149625063E-1,-2.039537430E0
4.207496711E0,-3.826075077E0,-7.320500016E-1,-2.104437590E0
4.209999482E0,-3.799400091E0,-6.553249955E-1,-2.160812378E0
4.212502251E0,-3.765437365E0,-5.648499727E-1,-2.200274944E0
4.215005021E0,-3.729137421E0,-4.776749909E-1,-2.246062517E0
4.217507790E0,-3.692012548E0,-3.968249857E-1,-2.292812586E0
4.220010559E0,-3.646224976E0,-3.095124960E-1,-2.322649956E0
4.222513328E0,-3.593012571E0,-2.019875050E-1,-2.340662479E0
4.225016097E0,-3.515325069E0,-3.492499888E-2,-2.346024990E0
4.227518942E0,-3.415225029E0,2.077624947E-1,-2.347125053E0
4.230021713E0,-3.300275087E0,5.259374976E-1,-2.346024990E0
4.232524482E0,-3.155624866E0,9.323874712E-1,-2.317287445E0
4.235027251E0,-2.980999947E0,1.432612538E0,-2.254587412E0
4.237530016E0,-2.782037497E0,2.012587547E0,-2.170437574E0
4.240033014E0,-2.568087578E0,2.627762556E0,-2.086425066E0
4.242535785E0,-2.336124897E0,3.204575062E0,-2.001312494E0
4.245038559E0,-2.083950043E0,3.696137428E0,-1.925687432E0
4.247541328E0,-1.814725041E0,4.075087547E0,-1.875637531E0
4.250044074E0,-1.529549956E0,4.330424786E0,-1.857625008E0
4.252546843E0,-1.243275046E0,4.442212582E0,-1.890625000E0
4.255049612E0,-9.781749845E-1,4.393262386E0,-1.977800012E0
4.257552456E0,-7.313625216E-1,4.213412285E0,-2.105537415E0
4.260055227E0,-5.046250224E-1,3.913249969E0,-2.236437559E0
4.262557997E0,-2.492875010E-1,3.509962559E0,-2.325812578E0
4.265060766E0,2.639999986E-2,3.056624889E0,-2.433337450E0
4.267563764E0,3.009875119E-1,2.599025011E0,-2.563137531E0
4.270066535E0,5.520625114E-1,2.125337601E0,-2.685512543E0
4.272569304E0,7.702749968E-1,1.625249982E0,-2.772825003E0
4.275072074E0,9.479249716E-1,1.127225041E0,-2.793037415E0
4.277574843E0,1.078824997E0,6.599999666E-1,-2.724974871E0
4.280077602E0,1.147024989E0,2.417249978E-1,-2.596137524E0
4.282580371E0,1.139600039E0,-1.126125008E-1,-2.432237387E0
4.285083140E0,1.013924956E0,-3.723500073E-1,-2.253487587E0
4.287585985E0,7.244874835E-1,-4.882625043E-1,-2.083124876E0
4.290088785E0,3.095124960E-1,-4.702500105E-1,-1.941637516E0
4.292591554E0,-1.150875017E-1,-3.946250081E-1,-1.812937498E0
4.295094318E0,-4.961000085E-1,-2.807750106E-1,-1.677775025E0
4.297597088E0,-8.398500085E-1,-1.190750003E-1,-1.543575048E0
4.300099857E0,-1.149500012E0,5.871250108E-2,-1.406350017E0
4.302602831E0,-1.408137441E0,2.322375029E-1,-1.270087481E0
4.305105371E0,-1.614662528E0,4.035624862E-1,-1.140287519E0
4.307608369E0,-1.785987496E0,5.641624928E-1,-1.021075010E0
4.310111141E0,-1.923212528E0,6.781499982E-1,-9.200124741E-1
4.312613910E0,-2.032799959E0,7.462124825E-1,-8.232125044E-1
4.315116754E0,-2.114749908E0,7.823749781E-1,-7.455250025E-1
4.317619525E0,-2.160537481E0,8.122124672E-1,-6.837875247E-1
4.320122294E0,-2.163700104E0,8.281624913E-1,-6.241124868E-1
4.322625064E0,-2.153112411E0,8.036875129E-1,-5.645750165E-1
4.325127833E0,-2.126437426E0,7.642250061E-1,-4.996750057E-1
4.327630602E0,-2.090275049E0,7.163749933E-1,-4.399999976E-1
4.330133371E0,-2.044625044E0,6.599999666E-1,-3.804624975E-1
4.332636140E0,-2.002000093E0,5.748875141E-1,-3.304125071E-1
4.335139125E0,-1.956212521E0,4.812499881E-1,-2.996124923E-1
4.337641896E0,-1.902999997E0,3.907749951E-1,-2.782999873E-1
4.340144665E0,-1.850887537E0,2.821500003E-1,-2.538250089E-1
4.342647434E0,-1.808262467E0,1.225124970E-1,-2.228875011E-1
4.345150284E0,-1.781725049E0,-7.535000145E-2,-1.963499933E-1
4.347652978E0,-1.764675021E0,-2.711499929E-1,-1.707749963E-1
4.350155822E0,-1.749825001E0,-4.435749948E-1,-1.505624950E-1
4.352658602E0,-1.740200043E0,-6.458374858E-1,-1.303499937E-1
4.355161372E0,-1.745562434E0,-9.150624871E-1,-1.038125008E-1
4.357664141E0,-1.757249951E0,-1.256612539E0,-7.603749633E-2
4.360166910E0,-1.773200035E0,-1.636525035E0,-5.692499876E-2
4.362669679E0,-1.771000028E0,-2.000487566E0,-4.729999974E-2
4.365172677E0,-1.744462490E0,-2.322925091E0,-3.987500072E-2
4.367675448E0,-1.698675036E0,-2.615662575E0,-3.038750030E-2
4.370178218E0,-1.630612493E0,-2.899737597E0,-2.186249942E-2
4.372680987E0,-1.535874963E0,-3.170062542E0,-3.561250120E-2
4.375183708E0,-1.418862462E0,-3.393637419E0,-8.992499858E-2
4.377686477E0,-1.295387506E0,-3.535125017E0,-1.984124929E-1
4.380189327E0,-1.179337502E0,-3.543649912E0,-3.559874892E-1
4.382692098E0,-1.067549944E0,-3.399962425E0,-5.475249887E-1
4.385194867E0,-9.761124849E-1,-3.125375032E0,-7.550125122E-1
4.387697626E0,-9.047499895E-1,-2.751787424E0,-9.615374804E-1
4.390200396E0,-8.568999767E-1,-2.317699909E0,-1.161599994E0
4.392703394E0,-8.324249983E-1,-1.860100031E0,-1.332924962E0
4.395206180E0,-8.122124672E-1,-1.429037452E0,-1.474412441E0
4.397708949E0,-8.047875166E-1,-1.054487467E0,-1.570250034E0
4.400211718E0,-8.100125194E-1,-7.585874796E-1,-1.601050019E0
4.402714472E0,-8.238999844E-1,-5.531625152E-1,-1.559662461E0
4.405217242E0,-8.452125192E-1,-4.244624972E-1,-1.454200029E0
4.407720011E0,-8.611624837E-1,-3.605250120E-1,-1.313812494E0
4.410222855E0,-8.696874976E-1,-3.499374986E-1,-1.170125008E0
4.412725626E0,-8.674874902E-1,-3.775750101E-1,-1.056275010E0
4.415228396E0,-8.590999842E-1,-4.276250005E-1,-9.721249938E-1
4.417731165E0,-8.387500048E-1,-4.839999974E-1,-9.211124778E-1
4.420233934E0,-8.090500236E-1,-5.468375087E-1,-8.955374956E-1
4.422736932E0,-7.771499753E-1,-6.011499763E-1,-8.827499747E-1
4.425239473E0,-7.462124825E-1,-6.404749751E-1,-8.795874715E-1
4.427742467E0,-7.132124901E-1,-6.681125164E-1,-8.764249682E-1
4.430245238E0,-6.802124977E-1,-6.819999814E-1,-8.688625097E-1
4.432748002E0,-6.494125128E-1,-6.990500093E-1,-8.551124930E-1
4.435250771E0,-6.142125130E-1,-7.170624733E-1,-8.402624726E-1
4.437753610E0,-5.823125243E-1,-7.372750044E-1,-8.157874942E-1
4.440256382E0,-5.450500250E-1,-7.713750005E-1,-7.848500013E-1
4.442759151E0,-5.046250224E-1,-8.021749854E-1,-7.497875094E-1
4.445261920E0,-4.610374868E-1,-8.203250170E-1,-7.071624994E-1
4.447764602E0,-4.131875038E-1,-8.362749815E-1,-6.635749936E-1
4.450267372E0,-3.609375060E-1,-8.511250019E-1,-6.072000265E-1
4.452770141E0,-3.099249899E-1,-8.618500233E-1,-5.464249849E-1
4.455273139E0,-2.630375028E-1,-8.766999841E-1,-4.900499880E-1
4.457775910E0,-2.162874937E-1,-8.958125114E-1,-4.399999976E-1
4.460278679E0,-1.704999954E-1,-9.202874899E-1,-3.921499848E-1
4.462781449E0,-1.300749928E-1,-9.532874823E-1,-3.443000019E-1
4.465284293E0,-8.318749815E-2,-9.842249751E-1,-2.964499891E-1
4.467786987E0,-2.364999987E-2,-9.979749918E-1,-2.389750034E-1
4.470289831E0,3.808749840E-2,-9.990749955E-1,-1.739374995E-1
4.472792511E0,1.061500013E-1,-9.959124923E-1,-9.955000132E-2
4.475295356E0,1.817750037E-1,-9.862874746E-1,-2.186249942E-2
4.477798122E0,2.563000023E-1,-9.777625203E-1,5.582499877E-2
4.480300891E0,3.306874931E-1,-9.629124999E-1,1.357125044E-1
4.482803889E0,4.083749950E-1,-9.373375177E-1,2.176624984E-1
4.485306669E0,4.776749909E-1,-9.033749700E-1,3.038749993E-1
4.487809439E0,5.414749980E-1,-8.672124743E-1,3.825249970E-1
4.490312204E0,6.043124795E-1,-8.266500235E-1,4.453625083E-1
4.492814973E0,6.670125127E-1,-7.777000070E-1,5.048999786E-1
4.495317742E0,7.287499905E-1,-7.202249765E-1,5.571500063E-1
4.497820512E0,7.884249687E-1,-6.627500057E-1,6.050000191E-1
4.500323356E0,8.500249982E-1,-6.054124832E-1,6.582124829E-1
4.502826127E0,9.096999764E-1,-5.596249700E-1,7.125250101E-1
4.505328896E0,9.735000134E-1,-5.181000233E-1,7.635374665E-1
4.507831665E0,1.042662501E0,-4.776749909E-1,8.167499900E-1
4.510334435E0,1.110862494E0,-4.478375018E-1,8.710625172E-1
4.512837433E0,1.165037513E0,-4.393124878E-1,9.274374843E-1
4.515340001E0,1.207662463E0,-4.648874998E-1,9.891750216E-1
4.517842994E0,1.239562511E0,-5.212625265E-1,1.047749996E0
4.520345765E0,1.264037490E0,-6.063749790E-1,1.095600009E0
4.522848535E0,1.273662448E0,-7.107374668E-1,1.127499938E0
4.525351304E0,1.266237497E0,-8.054749966E-1,1.145650029E0
4.527854139E0,1.249187469E0,-8.937500119E-1,1.143450022E0
4.530356910E0,1.226775050E0,-9.746000171E-1,1.122137547E0
4.532859679E0,1.188549995E0,-1.035237551E0,1.083912492E0
4.535362449E0,1.136299968E0,-1.076762438E0,1.034962535E0
4.537865218E0,1.081025004E0,-1.096012473E0,9.828500152E-1
4.540367987E0,1.013924956E0,-1.123649955E0,9.189124703E-1
4.542870756E0,9.469624758E-1,-1.166137457E0,8.529124856E-1
4.545373754E0,8.650124669E-1,-1.172600031E0,7.837499976E-1
4.547876526E0,7.585874796E-1,-1.110862494E0,7.188500166E-1
4.550379290E0,5.915250182E-1,-9.693750143E-1,6.283749938E-1
4.552882059E0,3.510375023E-1,-7.734375000E-1,4.804250002E-1
4.555384903E0,1.104125008E-1,-5.691124797E-1,2.612499893E-1
4.557887584E0,-3.959999979E-2,-4.105750024E-1,-2.076249942E-2
4.560390428E0,-6.517499685E-2,-3.968249857E-1,-3.559874892E-1
4.562893199E0,1.993750036E-2,-5.616874695E-1,-7.167875171E-1
4.565395967E0,1.700875014E-1,-8.351749778E-1,-1.069062471E0
4.567898736E0,3.551625013E-1,-1.096974969E0,-1.379812479E0
4.570401734E0,5.478000045E-1,-1.225812435E0,-1.592525005E0
4.572904506E0,7.138999701E-1,-1.162974954E0,-1.689462543E0
4.575407275E0,8.416374922E-1,-1.003337502E0,-1.707474947E0
4.577910044E0,9.256500006E-1,-8.553875089E-1,-1.640512466E0
4.580412813E0,9.660750031E-1,-7.511624694E-1,-1.503149986E0
4.582915583E0,9.703375101E-1,-7.352125049E-1,-1.304187536E0
4.585418427E0,9.352750182E-1,-7.649124861E-1,-1.074287534E0
4.587921198E0,8.735374808E-1,-8.288499713E-1,-8.349000216E-1
4.590423967E0,7.904874682E-1,-9.182249904E-1,-6.039000154E-1
4.592926737E0,6.936874986E-1,-1.019287467E0,-3.793624938E-1
4.595429751E0,5.754374862E-1,-1.142762542E0,-1.676124930E-1
4.597932522E0,4.487999976E-1,-1.268299937E0,1.539999992E-2
4.600435267E0,3.275249898E-1,-1.396037459E0,1.570249945E-1
4.602938036E0,2.136749923E-1,-1.508924961E0,2.634499967E-1
4.605440805E0,1.126125008E-1,-1.604624987E0,3.326124847E-1
4.607943570E0,2.323750034E-2,-1.693037510E0,3.676750064E-1
4.610446399E0,-4.592499882E-2,-1.756837487E0,3.761999905E-1
4.612949170E0,-9.075000137E-2,-1.779112458E0,3.634124994E-1
4.615451939E0,-1.152250022E-1,-1.772787452E0,3.357749879E-1
4.617954709E0,-1.161874980E-1,-1.726999998E0,2.899875045E-1
4.620457478E0,-1.002374962E-1,-1.638725042E0,2.558875084E-1
4.622960247E0,-7.259999961E-2,-1.508924961E0,2.452999949E-1
4.625463245E0,-4.069999978E-2,-1.343924999E0,2.367749959E-1
4.627966016E0,-5.499999970E-3,-1.159812450E0,2.293500006E-1
4.630468786E0,2.529999986E-2,-9.682750106E-1,2.325125039E-1
4.632971555E0,4.344999790E-2,-7.777000070E-1,2.282499969E-1
4.635474405E0,5.513750017E-2,-5.861625075E-1,2.080374956E-1
4.637977249E0,7.644999772E-2,-3.968249857E-1,1.707749963E-1
4.640480010E0,1.040875018E-1,-2.019875050E-1,1.143999994E-1
4.642982780E0,1.456124932E-1,-1.264999993E-2,3.781250119E-2
4.645485549E0,2.083124965E-1,1.683000028E-1,-6.435000151E-2
4.647988318E0,2.860000134E-1,3.566749990E-1,-1.952500045E-1
4.650491307E0,3.551625013E-1,5.876749754E-1,-3.315125108E-1
4.652994078E0,3.924250007E-1,8.739500046E-1,-4.644750059E-1
4.655496848E0,3.871999979E-1,1.237912536E0,-5.986750126E-1
4.657999617E0,3.232625127E-1,1.686987519E0,-7.210500240E-1
4.660502386E0,2.253624946E-1,2.205224991E0,-8.135874867E-1
4.663005155E0,1.029874980E-1,2.687299967E0,-8.742250204E-1
4.665507925E0,-3.107500076E-2,3.037374973E0,-8.966374993E-1
4.668010769E0,-1.758625060E-1,3.232212543E0,-8.816499710E-1
4.670513540E0,-3.386625051E-1,3.271537542E0,-8.369625211E-1
4.673016309E0,-5.185124874E-1,3.193850040E0,-7.785249949E-1
4.675519326E0,-6.972625256E-1,3.026787519E0,-7.082625031E-1
4.678022097E0,-8.654249907E-1,2.810775042E0,-6.274124980E-1
4.680524867E0,-1.001687527E0,2.597924948E0,-5.421624780E-1
4.683027636E0,-1.084599972E0,2.426599979E0,-4.677749872E-1
4.685530405E0,-1.126124978E0,2.295700073E0,-3.943499923E-1
4.688033184E0,-1.140012503E0,2.209487438E0,-3.123999834E-1
4.690535954E0,-1.137812495E0,2.160537481E0,-2.304500043E-1
4.693038822E0,-1.103850007E0,2.122174978E0,-1.622499973E-1
4.695541593E0,-1.010212541E0,2.073225021E0,-1.112374961E-1
4.698044362E0,-8.377875090E-1,1.966799974E0,-7.287500054E-2
4.700547360E0,-5.939999819E-1,1.767837524E0,-3.671250120E-2
4.703050131E0,-3.141874969E-1,1.509199977E0,-6.874999963E-3
4.705552670E0,-1.086249948E-2,1.220862508E0,2.186249942E-2
4.708055668E0,2.881999910E-1,9.303249717E-1,4.633750021E-2
4.710558439E0,5.861625075E-1,6.494125128E-1,8.139999956E-2
4.713061208E0,8.659750223E-1,4.152500033E-1,1.282874942E-1
4.715564053E0,1.109762549E0,2.459875047E-1,1.824624985E-1
4.718066857E0,1.312987447E0,1.619749963E-1,2.558875084E-1
4.720569626E0,1.474825025E0,1.662375033E-1,3.431999981E-1
4.723072395E0,1.595000029E0,2.524499893E-1,4.433000088E-1
4.725575180E0,1.682312489E0,4.109874964E-1,5.421624780E-1
4.728077949E0,1.735525012E0,6.290624738E-1,6.369000077E-1
4.730580718E0,1.755737543E0,8.951249719E-1,7.273749709E-1
4.733083716E0,1.747212529E0,1.191025019E0,8.189499974E-1
4.735586496E0,1.715312481E0,1.507137537E0,9.083250165E-1
4.738089265E0,1.672687531E0,1.833837509E0,9.945374727E-1
4.740592026E0,1.624837518E0,2.160537481E0,1.077450037E0
4.743094870E0,1.575887442E0,2.478712559E0,1.160500050E0
4.745597641E0,1.521574974E0,2.761825085E0,1.242449999E0
4.748100410E0,1.467262506E0,2.996949911E0,1.323300004E0
4.750603180E0,1.420512438E0,3.199212551E0,1.403187513E0
4.753105949E0,1.383249998E0,3.382225037E0,1.471249938E0
4.755608947E0,1.343924999E0,3.521650076E0,1.530925035E0
4.758111718E0,1.311887503E0,3.617487431E0,1.583037496E0
4.760614487E0,1.279987454E0,3.667399883E0,1.627725005E0
4.763117257E0,1.250149965E0,3.685549974E0,1.665949941E0
4.765620030E0,1.223612547E0,3.683350086E0,1.694687486E0
4.768122799E0,1.199137449E0,3.653650045E0,1.724524975E0
4.770625568E0,1.182087541E0,3.599337578E0,1.755462527E0
4.773128441E0,1.168337464E0,3.519449949E0,1.783100009E0
4.775631213E0,1.150187492E0,3.414124966E0,1.802212477E0
4.778134006E0,1.136299968E0,3.286387444E0,1.813899994E0
4.780637004E0,1.123512506E0,3.138575077E0,1.817199945E0
4.783139544E0,1.109762549E0,2.967249870E0,1.813899994E0
4.785642557E0,1.062875032E0,2.727725029E0,1.796849966E0
4.788145329E0,9.894499779E-1,2.434025049E0,1.781999946E0
4.790648098E0,8.969125152E-1,2.106225014E0,1.771412492E0
4.793150867E0,7.799000144E-1,1.748724937E0,1.756425023E0
4.795653711E0,6.489999890E-1,1.372937441E0,1.740474939E0
4.798156482E0,5.095750093E-1,9.941250086E-1,1.721362472E0
4.800659252E0,3.636874855E-1,6.173750162E-1,1.704312444E0
4.803162021E0,2.242625058E-1,2.587749958E-1,1.688362479E0
4.805664790E0,1.072499976E-1,-7.012499869E-2,1.679837465E0
4.808167559E0,1.251249947E-2,-3.573625088E-1,1.672412515E0
4.810670557E0,-6.407500058E-2,-6.171000004E-1,1.669250011E0
4.813173343E0,-1.204499975E-1,-8.522250056E-1,1.667050004E0
4.815676112E0,-1.651374996E-1,-1.069337487E0,1.667050004E0
4.818178881E0,-2.023999989E-1,-1.284250021E0,1.660724998E0
4.820681665E0,-2.268749923E-1,-1.502462506E0,1.647937536E0
4.823184510E0,-2.418625057E-1,-1.708987474E0,1.631987453E0
4.825687281E0,-2.375999987E-1,-1.894062519E0,1.610674977E0
4.828190064E0,-2.088624984E-1,-2.049437523E0,1.579874992E0
4.830692833E0,-1.491875052E-1,-2.150637388E0,1.543575048E0
4.833195822E0,-4.702499881E-2,-2.184599876E0,1.496824980E0
4.835698593E0,8.071249723E-2,-2.189962387E0,1.447875023E0
4.838201363E0,2.232999951E-1,-2.191062450E0,1.396724939E0
4.840704132E0,3.669874966E-1,-2.200550079E0,1.342550039E0
4.843206901E0,5.148000121E-1,-2.242074966E0,1.293599963E0
4.845709670E0,6.627500057E-1,-2.310275078E0,1.239287496E0
4.848212515E0,8.138625026E-1,-2.394287586E0,1.191437483E0
4.850715286E0,9.692375064E-1,-2.486824989E0,1.144549966E0
4.853218055E0,1.132037520E0,-2.584724903E0,1.085975051E0
4.855720824E0,1.297037482E0,-2.676300049E0,1.031800032E0
4.858223841E0,1.476887465E0,-2.746562481E0,9.871125221E-1
4.860726382E0,1.656737447E0,-2.806099892E0,9.444875121E-1
4.863229380E0,1.836587548E0,-2.867837429E0,9.018625021E-1
4.865732155E0,2.010112524E0,-2.911424875E0,8.604750037E-1
4.868234924E0,2.180337429E0,-2.929574966E0,8.232125044E-1
4.870737768E0,2.352762461E0,-2.928474903E0,7.880125046E-1
4.873240540E0,2.525187492E0,-2.914725065E0,7.475875020E-1
4.875743300E0,2.691149950E0,-2.888050079E0,6.975374818E-1
4.878246069E0,2.849687576E0,-2.851887465E0,6.433625221E-1
4.880748838E0,2.990212440E0,-2.822050095E0,5.922124982E-1
4.883251608E0,3.101999998E0,-2.786987543E0,5.389999747E-1
4.885754606E0,3.184912443E0,-2.751924992E0,4.932124913E-1
4.888257377E0,3.241287470E0,-2.694449902E0,4.433000088E-1
4.890760146E0,3.274287462E0,-2.611399889E0,3.900874853E-1
4.893262915E0,3.298762560E0,-2.518862486E0,3.463625014E-1
4.895765685E0,3.310450077E0,-2.409137487E0,3.081375062E-1
4.898268439E0,3.315812588E0,-2.293225050E0,2.751374841E-1
4.900771283E0,3.314712524E0,-2.168649912E0,2.410375029E-1
4.903274054E0,3.310450077E0,-2.031424999E0,2.037750036E-1
4.905776809E0,3.305224895E0,-1.873849988E0,1.676124930E-1
4.908279579E0,3.295599937E0,-1.708987474E0,1.368124932E-1
4.910782601E0,3.289274931E0,-1.534362435E0,1.058750004E-1
4.913285372E0,3.280750036E0,-1.353549957E0,7.603749633E-2
4.915788166E0,3.275387526E0,-1.162974954E0,4.633750021E-2
4.918290935E0,3.264800072E0,-9.640125036E-1,1.856249943E-2
4.920793705E0,3.247750044E0,-7.585874796E-1,-1.649999991E-2
4.923296549E0,3.242387533E0,-5.500000119E-1,-6.228749827E-2
4.925799325E0,3.247750044E0,-3.371500075E-1,-1.080750003E-1
4.928302094E0,3.266862392E0,-1.051874980E-1,-1.463000029E-1
4.930804863E0,3.307287455E0,1.736624986E-1,-1.739374995E-1
4.933307633E0,3.354175091E0,5.268999934E-1,-1.920875013E-1
4.935810631E0,3.379750013E0,9.483374953E-1,-1.900250018E-1
4.938313402E0,3.380712509E0,1.398512483E0,-1.707749963E-1
4.940816171E0,3.355274916E0,1.855149984E0,-1.377750039E-1
4.943318940E0,3.295599937E0,2.321274996E0,-9.955000132E-2
4.945821710E0,3.204162598E0,2.792624950E0,-4.949999973E-2
4.948324544E0,3.085912466E0,3.254487514E0,6.874999963E-3
4.950827238E0,2.948687553E0,3.686650038E0,6.861250103E-2
4.953330082E0,2.796474934E0,4.061200142E0,1.292500049E-1
4.955832854E0,2.639999866E0,4.354899883E0,1.867250055E-1
4.958335857E0,2.484625101E0,4.568850040E0,2.356749922E-1
4.960838628E0,2.331449986E0,4.692325115E0,2.740375102E-1
4.963341397E0,2.176074982E0,4.714600086E0,3.048374951E-1
4.965844166E0,2.016437531E0,4.628387451E0,3.335750103E-1
4.968346931E0,1.863262534E0,4.432587624E0,3.676750064E-1
4.970849700E0,1.717375040E0,4.153737545E0,3.921499848E-1
4.973352524E0,1.581112504E0,3.820712566E0,4.155249894E-1
4.975855295E0,1.456674933E0,3.447124958E0,4.527874887E-1
4.978358064E0,1.335399985E0,3.026787519E0,4.996750057E-1
4.980860834E0,1.211925030E0,2.586237431E0,5.528874993E-1
4.983363603E0,1.093812466E0,2.143487453E0,6.061000228E-1
4.985866372E0,9.746000171E-1,1.701837540E0,6.635749936E-1
4.988369370E0,8.533250093E-1,1.272974968E0,7.284749746E-1
4.990872141E0,7.415375113E-1,8.749125004E-1,7.944750190E-1
4.993374911E0,6.393749714E-1,5.152124763E-1,8.604750037E-1
4.995877755E0,5.468375087E-1,1.907124966E-1,9.231749773E-1
4.998380531E0,4.637874961E-1,-1.062875018E-1,9.817500114E-1
5.000883300E0,3.955875039E-1,-3.627249897E-1,1.036062479E0
5.003386074E0,3.499374986E-1,-5.616874695E-1,1.071125031E0
5.005888844E0,3.232625127E-1,-7.042750120E-1,1.099862456E0
5.008391613E0,3.190000057E-1,-7.862250209E-1,1.113749981E0
5.010894592E0,3.382500112E-1,-8.129000068E-1,1.116912484E0
5.013397363E0,3.711124957E-1,-7.990124822E-1,1.120074987E0
5.015900132E0,4.159374833E-1,-7.522624731E-1,1.118975043E0
5.018402902E0,4.723125100E-1,-6.745749712E-1,1.113749981E0
5.020905671E0,5.383124948E-1,-5.713124871E-1,1.109487534E0
5.023408515E0,6.052749753E-1,-4.542999864E-1,1.108387470E0
5.025911286E0,6.777374744E-1,-3.276624978E-1,1.107287526E0
5.028414055E0,7.563874722E-1,-1.945624948E-1,1.108387470E0
5.030916825E0,8.298124671E-1,-7.644999772E-2,1.105224967E0
5.033419842E0,9.022749662E-1,1.292499993E-2,1.105224967E0
5.035922382E0,9.618124962E-1,6.833750010E-2,1.103024960E0
5.038425380E0,1.009662509E0,8.635000139E-2,1.105224967E0
5.040928146E0,1.053387523E0,7.466249913E-2,1.108387470E0
5.043430916E0,1.092712522E0,3.849999979E-2,1.106187463E0
5.045933765E0,1.121449947E0,-1.361249946E-2,1.105224967E0
5.048436536E0,1.142762542E0,-6.792499870E-2,1.112650037E0
5.050939305E0,1.150187492E0,-1.200374961E-1,1.114712477E0
5.053442104E0,1.139600039E0,-1.615625024E-1,1.112650037E0
5.055944873E0,1.112925053E0,-1.891999990E-1,1.106187463E0
5.058447871E0,1.066037536E0,-1.999250054E-1,1.095600009E0
5.060950642E0,1.002237439E0,-1.797125041E-1,1.080749989E0
5.063453411E0,9.191874862E-1,-1.307625026E-1,1.062600017E0
5.065956181E0,8.160625100E-1,-4.977500066E-2,1.044587493E0
5.068459025E0,7.042750120E-1,5.871250108E-2,1.025337458E0
5.070961719E0,5.882250071E-1,1.927749962E-1,1.008287549E0
5.073464563E0,4.648874998E-1,3.364624977E-1,9.880750179E-1
5.075967334E0,3.434749842E-1,4.875749946E-1,9.689624906E-1
5.078470104E0,2.275625020E-1,6.355249882E-1,9.487500191E-1
5.080973102E0,1.211374998E-1,7.738500237E-1,9.253749847E-1
5.083475878E0,2.846249938E-2,8.951249719E-1,8.986999989E-1
5.085978647E0,-5.444999784E-2,9.866999984E-1,8.710625172E-1
5.088481416E0,-1.236125007E-1,1.041975021E0,8.508499861E-1
5.090984156E0,-1.727000028E-1,1.066450000E0,8.252750039E-1
5.093487000E0,-2.098249942E-1,1.056962490E0,8.007999659E-1
5.095989766E0,-2.364999950E-1,1.012274981E0,7.752249837E-1
5.098492535E0,-2.556124926E-1,9.398124814E-1,7.540500164E-1
5.100995304E0,-2.641375065E-1,8.494749665E-1,7.347999811E-1
5.103498074E0,-2.663374841E-1,7.473124862E-1,7.103250027E-1
