"Time (s)","Linear Acceleration x (m/s^2)","Linear Acceleration y (m/s^2)","Linear Acceleration z (m/s^2)"
5.290200600E-2,-6.010437012E-2,2.484655380E-1,5.409746170E-1
5.540499600E-2,-8.165788651E-2,2.681007385E-1,5.468435287E-1
5.790776500E-2,-1.056299210E-1,3.379893303E-1,5.327386856E-1
6.041030500E-2,-1.606800556E-1,3.180394173E-1,4.937391281E-1
6.291307300E-2,-2.586300373E-1,3.259897232E-1,4.058389664E-1
6.541584700E-2,-4.038598537E-1,2.735643387E-1,3.231801987E-1
6.791861600E-2,-4.699399471E-1,1.673378944E-1,3.039360046E-1
7.042138500E-2,-3.959898949E-1,2.663378716E-1,2.919359207E-1
7.292408000E-2,-4.009399414E-1,3.182382584E-1,3.319864273E-1
7.542684700E-2,-7.478897572E-1,3.953380585E-1,2.818861008E-1
7.792961600E-2,-8.579897881E-1,3.692378998E-1,2.439365387E-1
8.043238500E-2,-4.649899006E-1,7.628822327E-2,2.793598175E-2
8.293515500E-2,-3.499398232E-1,-5.766201019E-2,-1.150140762E-1
8.543792400E-2,-2.159898281E-1,1.482882500E-1,9.498596191E-2
8.794046400E-2,-1.258642673E-1,3.458230495E-1,2.343864441E-1
9.044345700E-2,-2.337105274E-1,5.126218796E-1,3.064022064E-1
9.294622800E-2,-3.349728584E-1,5.844407082E-1,3.491849899E-1
9.544876700E-2,-4.315643311E-1,6.052687168E-1,3.199195862E-1
9.795154300E-2,-4.549813271E-1,4.574511051E-1,1.057996750E-1
1.004543120E-1,-4.608006477E-1,3.144035339E-1,-9.607410431E-2
1.029570340E-1,-3.612747192E-1,3.000445366E-1,-1.365242004E-1
1.054598030E-1,-2.770166397E-1,3.017697334E-1,-1.824893951E-1
1.079625720E-1,-5.020065308E-1,3.315715790E-1,-2.538356781E-1
1.104652810E-1,-7.628414631E-1,4.283573627E-1,-3.783378601E-1
1.129680490E-1,-4.586827755E-1,3.543236256E-1,-5.094532967E-1
1.154707980E-1,-1.931633949E-1,3.354635239E-1,-5.044031143E-1
1.179735670E-1,-1.222057343E-1,3.620693684E-1,-5.571737289E-1
1.204763360E-1,-1.082427502E-1,3.151140213E-1,-6.373844147E-1
1.229791060E-1,-1.841428280E-1,3.322138786E-1,-7.374343872E-1
1.254816460E-1,-2.351429462E-1,4.492139816E-1,-8.593845367E-1
1.279844130E-1,-3.831927776E-1,5.881142616E-1,-9.963345528E-1
1.304871830E-1,-8.912429810E-1,5.351643562E-1,-1.173334599E0
1.329899520E-1,-7.421429157E-1,4.231142998E-1,-1.307434559E0
1.354927210E-1,-3.281428814E-1,3.551640511E-1,-1.365334511E0
1.379954900E-1,-2.124285698E-2,3.772139549E-1,-1.470334530E0
1.404982600E-1,2.170815468E-1,4.150080681E-1,-1.588173866E0
1.430009540E-1,3.031814098E-1,3.959579468E-1,-1.475224018E0
1.455037010E-1,3.421194553E-1,4.124448299E-1,-1.332184792E0
1.480064700E-1,2.827341557E-1,4.182312489E-1,-1.169655323E0
1.505092400E-1,1.308884621E-1,4.478132725E-1,-1.059952259E0
1.530120180E-1,5.404853821E-2,4.806129932E-1,-9.893717766E-1
1.555147870E-1,-8.497953415E-3,4.296808243E-1,-9.079065323E-1
1.580175560E-1,-1.248002052E-2,4.561803341E-1,-8.637185097E-1
1.605200970E-1,9.523963928E-2,4.073510170E-1,-5.212574005E-1
1.630228550E-1,3.264875412E-1,3.863425255E-1,-3.238325119E-1
1.655256240E-1,1.563875675E-1,3.672924042E-1,-6.397323608E-1
1.680283930E-1,2.733876705E-1,2.862925529E-1,-6.238327026E-1
1.705311630E-1,4.464876652E-1,2.522425652E-1,-5.038328171E-1
1.730339320E-1,7.593874931E-1,2.333421707E-1,-4.607830048E-1
1.755367010E-1,1.349487543E0,1.422924995E-1,-3.028326035E-1
1.780393950E-1,1.406487703E0,8.229231834E-2,-2.017326355E-1
1.805422400E-1,1.394487619E0,9.624242783E-2,-1.207323074E-1
1.830449340E-1,1.464188814E0,2.669289112E-1,-8.170604706E-2
1.855477010E-1,1.385534048E0,3.387403488E-1,-3.311824799E-2
1.880504700E-1,1.251343250E0,4.082756042E-1,-8.229541779E-2
1.905532540E-1,1.156471252E0,4.134671688E-1,-1.921854019E-1
1.930560230E-1,9.965345860E-1,4.097652435E-1,-2.582912445E-1
1.955587920E-1,8.241305351E-1,4.309201241E-1,-3.939285278E-1
1.980613190E-1,7.179520130E-1,3.726165295E-1,-4.981594086E-1
2.005640860E-1,6.269967556E-1,3.488852978E-1,-4.048576355E-1
2.030668550E-1,3.195838928E-1,3.740296364E-1,-5.121126175E-1
2.055696530E-1,-4.941606522E-2,3.329296112E-1,-7.030625343E-1
2.080724230E-1,8.628726006E-2,2.462084293E-1,-7.222480774E-1
2.105751920E-1,2.602748871E-1,2.019205093E-1,-6.358556747E-1
2.130778950E-1,3.065378666E-1,2.345726490E-1,-4.993972778E-1
2.155806620E-1,3.255879879E-1,2.005226612E-1,-3.793973923E-1
2.180834320E-1,3.395378590E-1,1.555225849E-1,-2.863979340E-1
2.205862010E-1,3.474879265E-1,1.955726147E-1,-2.043476105E-1
2.230889700E-1,3.165879250E-1,1.795225143E-1,-1.183977127E-1
2.255915110E-1,-1.941204071E-2,2.225725651E-1,-1.803474426E-1
2.280945090E-1,5.453801155E-2,1.625726223E-1,-1.833477020E-1
2.305970490E-1,1.775379181E-1,8.847260475E-2,-6.829738617E-2
2.331000470E-1,9.548807144E-2,1.675226688E-1,2.065277100E-2
2.356025870E-1,9.009623528E-2,1.842820644E-1,1.722745895E-1
2.381053740E-1,2.995808125E-1,2.640581131E-2,2.512464523E-1
2.406081430E-1,4.454004765E-1,-6.694555283E-2,3.059864044E-1
2.431108830E-1,5.379641056E-1,-9.869122505E-2,2.859096527E-1
2.456136520E-1,5.852563381E-1,-9.276866913E-2,2.730073929E-1
2.481163470E-1,5.333979130E-1,-8.523964882E-2,3.063631058E-1
2.506191290E-1,5.517539978E-1,-9.035563469E-2,3.979721069E-1
2.531218980E-1,4.860687256E-1,-1.178827286E-1,3.389940262E-1
2.556246520E-1,4.640185833E-1,-1.178827286E-1,2.980442047E-1
2.581274220E-1,4.187395573E-1,-7.129764557E-2,2.067155838E-1
2.606301910E-1,3.458113670E-1,-6.078982353E-2,1.588239670E-1
2.631329800E-1,2.745203972E-1,-6.324768066E-2,7.900619507E-2
2.656355210E-1,2.235202789E-1,-4.119777679E-2,2.056121826E-3
2.681382880E-1,1.995203495E-1,-5.619764328E-2,-1.168937683E-1
2.706410570E-1,1.164202690E-1,-6.519770622E-2,-1.918945312E-1
2.731438260E-1,7.547044754E-2,-3.924775124E-2,-3.229942322E-1
2.756465960E-1,1.742029190E-2,-5.319786072E-2,-4.618940353E-1
2.781493650E-1,-4.372119904E-2,-6.460833549E-2,-5.348491669E-1
2.806521340E-1,-8.167123795E-2,-4.360842705E-2,-6.138992310E-1
2.831549030E-1,-9.339499474E-2,-9.811854362E-2,-6.649541855E-1
2.856575980E-1,-1.377549171E-1,-1.153860092E-1,-7.038745880E-1
2.881603360E-1,-1.658816338E-1,-1.376402378E-1,-7.517657280E-1
2.906631050E-1,-2.014188766E-1,-1.984891891E-1,-7.698144913E-1
2.931658880E-1,-2.470042706E-1,-2.112226486E-1,-7.997703552E-1
2.956686580E-1,-2.567837238E-1,-2.385342121E-1,-8.299226761E-1
2.981714270E-1,-3.220412731E-1,-2.457203865E-1,-8.067474365E-1
3.006739860E-1,-3.340413570E-1,-2.557704449E-1,-7.947473526E-1
3.031767530E-1,-3.168706894E-1,-2.988584042E-1,-7.947549820E-1
3.056795230E-1,-3.130846024E-1,-3.409461975E-1,-7.391901016E-1
3.081823130E-1,-3.069040775E-1,-3.741457462E-1,-7.323408127E-1
3.106850820E-1,-3.069040775E-1,-3.721959591E-1,-7.362408638E-1
3.131878510E-1,-2.488541603E-1,-3.691959381E-1,-7.293405533E-1
3.156905460E-1,-3.309040070E-1,-2.691459656E-1,-7.443408966E-1
3.181933130E-1,-3.519041538E-1,-3.072459698E-1,-7.702908516E-1
3.206960820E-1,-1.318540573E-1,-4.152457714E-1,-8.272905350E-1
3.231988510E-1,3.809595108E-2,-4.891958237E-1,-8.733406067E-1
3.257016210E-1,1.511960030E-1,-5.371959209E-1,-9.093408585E-1
3.282043900E-1,7.478713989E-2,-5.002455711E-1,-9.476184845E-1
3.307069300E-1,-2.280223370E-1,-4.312043190E-1,-1.046128273E0
3.332099320E-1,8.261370659E-2,-6.210598946E-1,-1.161100864E0
3.357127040E-1,3.648960590E-1,-7.454633713E-1,-1.182037830E0
3.382151940E-1,6.267297268E-1,-7.843081951E-1,-1.061152458E0
3.407179610E-1,7.374334335E-1,-8.696658611E-1,-1.079444408E0
3.432207310E-1,4.175961018E-1,-7.261345387E-1,-1.210740566E0
3.457235050E-1,5.023872852E-1,-8.144252300E-1,-1.403930664E0
3.482262740E-1,7.052083015E-1,-9.132828712E-1,-1.449042320E0
3.507290430E-1,7.564206123E-1,-8.247199059E-1,-1.431721210E0
3.532318130E-1,9.074707031E-1,-8.227698803E-1,-1.491721630E0
3.557345070E-1,1.122420788E0,-8.827698231E-1,-1.548721313E0
3.582372740E-1,1.278420925E0,-9.777200222E-1,-1.620721340E0
3.607400430E-1,1.433370590E0,-9.897198677E-1,-1.692721367E0
3.632428130E-1,1.465470791E0,-1.035769939E0,-1.762771606E0
3.657455820E-1,1.419420719E0,-1.004719973E0,-1.826821327E0
3.682483510E-1,1.352370739E0,-1.052719831E0,-1.843771458E0
3.707508910E-1,1.171463966E0,-1.040012360E0,-1.830207348E0
3.732536640E-1,1.065564156E0,-1.086062193E0,-1.780257225E0
3.757566640E-1,1.001705408E0,-1.096963406E0,-1.784138203E0
3.782592040E-1,9.834430218E-1,-1.110461473E0,-1.867835522E0
3.807619370E-1,9.644453526E-1,-1.083839655E0,-1.872994423E0
3.832647070E-1,9.823999405E-1,-1.070936441E0,-1.943028927E0
3.857674760E-1,1.045100689E0,-1.054669619E0,-2.033721447E0
3.882702500E-1,1.050479412E0,-9.966213703E-1,-2.070502281E0
3.907730190E-1,9.993383884E-1,-9.267969131E-1,-2.198338985E0
3.932757140E-1,7.895011902E-1,-8.162798882E-1,-2.313268185E0
3.957784810E-1,6.524012089E-1,-7.562799454E-1,-2.428318024E0
3.982812500E-1,5.045011044E-1,-7.352800369E-1,-2.498218060E0
4.007840190E-1,4.325010777E-1,-7.151799202E-1,-2.565268040E0
4.032867890E-1,-3.654885292E-2,-5.792798996E-1,-2.713318348E0
4.057895580E-1,7.040119171E-2,-7.151799202E-1,-2.936218262E0
4.082923270E-1,4.085011482E-1,-9.191799164E-1,-3.017218113E0
4.107950960E-1,5.495011806E-1,-1.027179956E0,-3.017218113E0
4.132976320E-1,6.649401188E-1,-1.062098742E0,-3.052194118E0
4.158003990E-1,7.204439640E-1,-1.162425280E0,-3.072141647E0
4.183031630E-1,7.400646210E-1,-1.233141899E0,-3.068240166E0
4.208059330E-1,6.815273762E-1,-1.251007080E0,-3.002729893E0
4.233087020E-1,2.462360859E-1,-1.073349714E0,-2.868284702E0
4.258114670E-1,1.335279942E-1,-1.072850466E0,-2.786024570E0
4.283142360E-1,3.009929657E-1,-1.199738860E0,-2.670822620E0
4.308170050E-1,1.941733360E-1,-1.179680824E0,-2.406321526E0
4.333197040E-1,5.664515495E-2,-1.203289509E0,-2.170860767E0
4.358224710E-1,-1.376070976E-1,-1.312546492E0,-2.004133224E0
4.383252350E-1,-2.910950184E-1,-1.420093179E0,-1.878777504E0
4.408280040E-1,-7.010450363E-1,-1.410193205E0,-1.768827915E0
4.433307740E-1,-9.690949917E-1,-1.463143229E0,-1.770777702E0
4.458335430E-1,-8.081450462E-1,-1.657093287E0,-1.775727749E0
4.483360830E-1,-7.271449566E-1,-1.777093291E0,-1.593777657E0
4.508388510E-1,-6.671450138E-1,-1.906093240E0,-1.480827808E0
4.533418510E-1,-6.410450935E-1,-2.030143261E0,-1.394727707E0
4.558443910E-1,-6.410450935E-1,-2.100193262E0,-1.385727882E0
4.583471580E-1,-1.143270254E0,-1.892686725E0,-1.366072178E0
4.608499570E-1,-1.317920208E0,-1.958966255E0,-1.508482456E0
4.633527260E-1,-1.323035717E0,-2.041554213E0,-1.593356133E0
4.658554950E-1,-1.349724054E0,-2.087655544E0,-1.672786713E0
4.683581890E-1,-1.414575577E0,-2.074304104E0,-1.731814861E0
4.708610340E-1,-1.385316849E0,-2.097663403E0,-1.807092190E0
4.733637280E-1,-1.406887770E0,-2.225331783E0,-1.850570202E0
4.758664900E-1,-1.452304602E0,-2.391623259E0,-1.953258514E0
4.783692590E-1,-1.518134356E0,-2.452589750E0,-2.075714111E0
4.808720290E-1,-1.520177126E0,-2.524034977E0,-2.260868549E0
4.833747980E-1,-1.623015642E0,-2.640372753E0,-2.452834129E0
4.858775670E-1,-1.681065798E0,-2.771322727E0,-2.702734470E0
4.883801080E-1,-1.786065817E0,-2.845422745E0,-2.867734432E0
4.908828750E-1,-1.860015631E0,-2.915322781E0,-3.092734337E0
4.933856440E-1,-1.798065662E0,-3.051372766E0,-3.384784222E0
4.958884130E-1,-1.889115810E0,-3.176322937E0,-3.590734482E0
4.983911820E-1,-1.894065619E0,-3.327372789E0,-3.806734562E0
5.008939520E-1,-1.865115643E0,-3.516372919E0,-4.055734158E0
5.033967210E-1,-2.256835699E0,-3.485929012E0,-4.141614437E0
5.058994900E-1,-2.075018167E0,-3.323832512E0,-4.589447498E0
5.084022400E-1,-1.890883923E0,-3.066633463E0,-4.992449760E0
5.109050100E-1,-1.554980516E0,-2.860594273E0,-5.392472267E0
5.134077380E-1,-1.507082939E0,-2.627156258E0,-5.580065727E0
5.159105050E-1,-1.041678190E0,-2.753525972E0,-5.798025131E0
5.184132450E-1,-7.132787704E-1,-2.972556591E0,-5.834579468E0
5.209160150E-1,-6.222872734E-1,-3.216165304E0,-5.706009865E0
5.234187840E-1,-5.006794930E-1,-3.462939024E0,-5.631926060E0
5.259215670E-1,-6.017241478E-1,-3.687663317E0,-5.427370071E0
5.284243360E-1,-1.136269569E0,-3.724240780E0,-5.008269310E0
5.309268770E-1,-1.232269287E0,-3.839140892E0,-4.901319504E0
5.334296440E-1,-1.447219372E0,-3.812140942E0,-4.779369354E0
5.359324130E-1,-1.893169403E0,-3.769240856E0,-4.642269135E0
5.384351830E-1,-1.857169390E0,-3.901240826E0,-4.616319656E0
5.409379520E-1,-2.008219481E0,-3.927190781E0,-4.503369331E0
5.434407210E-1,-2.221219301E0,-3.901240826E0,-4.379319191E0
5.459434900E-1,-2.302219391E0,-4.018240929E0,-4.242369652E0
5.484462600E-1,-2.657155752E0,-4.124765396E0,-4.033943176E0
5.509490300E-1,-2.734356403E0,-4.327307701E0,-4.102985859E0
5.534518000E-1,-2.951309204E0,-4.457633495E0,-3.976272106E0
5.559545110E-1,-2.984442949E0,-4.589678288E0,-3.992850304E0
5.584572790E-1,-2.926675081E0,-4.766159058E0,-4.088891029E0
5.609600480E-1,-2.946148634E0,-4.856980324E0,-4.104735374E0
5.634628170E-1,-2.685148716E0,-5.076880455E0,-4.290735722E0
5.659655770E-1,-2.521369457E0,-5.151813507E0,-4.390024185E0
5.684683460E-1,-2.474691868E0,-5.188791275E0,-4.465235233E0
5.709708870E-1,-2.085247040E0,-5.409502506E0,-4.627040863E0
5.734736440E-1,-1.729202747E0,-5.549969196E0,-4.727234840E0
5.759764130E-1,-1.622138500E0,-5.554062366E0,-4.806897163E0
5.784791830E-1,-1.618668079E0,-5.422872543E0,-4.867337227E0
5.809819710E-1,-1.605619907E0,-5.232163906E0,-4.955774307E0
5.834847400E-1,-1.749795437E0,-4.996673584E0,-4.809803963E0
5.859875140E-1,-2.195998669E0,-4.479176521E0,-4.316849709E0
5.884902840E-1,-2.119048595E0,-4.338176727E0,-4.210799694E0
5.909930540E-1,-2.015998363E0,-4.350176334E0,-4.081799507E0
5.934958240E-1,-1.823998451E0,-4.367276192E0,-3.904799700E0
5.959985160E-1,-1.561048508E0,-4.455176353E0,-3.645749807E0
5.985012840E-1,-1.390948772E0,-4.611176491E0,-3.374849796E0
6.010040530E-1,-1.256998539E0,-4.709276199E0,-3.166799784E0
6.035068220E-1,-1.147048473E0,-4.834226608E0,-2.941799641E0
6.060095910E-1,-1.263126850E0,-4.743735313E0,-2.464672327E0
6.085123610E-1,-1.386205673E0,-4.706020832E0,-2.086882353E0
6.110151250E-1,-1.375673294E0,-4.809132576E0,-1.823254824E0
6.135176650E-1,-1.454413414E0,-4.841739655E0,-1.458004236E0
6.160206780E-1,-1.522353649E0,-4.891590118E0,-1.209466934E0
6.185232190E-1,-1.648613453E0,-4.811306000E0,-7.704024315E-1
6.210259860E-1,-1.895695686E0,-4.761180401E0,-4.102511406E-1
6.235287690E-1,-1.952007294E0,-4.813796043E0,-1.212434769E-1
6.260315380E-1,-1.880851269E0,-4.852996826E0,1.125664711E-1
6.285342940E-1,-1.888522625E0,-4.895732403E0,3.566317558E-1
6.310369880E-1,-1.876927376E0,-4.630973816E0,3.659081459E-1
6.335398320E-1,-1.895827293E0,-4.743023872E0,3.398084641E-1
6.360426030E-1,-1.928827286E0,-4.815023899E0,2.988581657E-1
6.385452960E-1,-2.106877327E0,-4.831974030E0,2.418584824E-1
6.410480630E-1,-2.146927357E0,-4.831974030E0,1.598081589E-1
6.435508320E-1,-1.935877323E0,-4.888973713E0,4.490852356E-2
6.460536010E-1,-1.744927406E0,-4.876974106E0,-7.914161682E-2
6.485563710E-1,-1.512877464E0,-4.872923851E0,-2.760915756E-1
6.510591400E-1,-1.712987423E0,-4.200908661E0,2.916312218E-1
6.535619090E-1,-1.585652828E0,-4.212774277E0,1.964044571E-1
6.560644450E-1,-1.432335854E0,-4.200089455E0,6.590700150E-2
6.585672120E-1,-1.284429550E0,-4.111402512E0,-3.239679337E-2
6.610699810E-1,-1.130952835E0,-4.061032772E0,-7.433629036E-2
6.635727600E-1,-8.908166885E-1,-3.989287853E0,-1.238777637E-1
6.660755300E-1,-6.204757690E-1,-3.974844456E0,-2.811074257E-1
6.685782990E-1,-4.007854462E-1,-3.814595222E0,-2.157347202E-1
6.710810730E-1,-1.514329910E-1,-3.777970314E0,-2.009041309E-1
6.735837670E-1,2.155933380E-1,-3.653954506E0,-1.228241920E-1
6.760866120E-1,5.511064529E-1,-3.624133110E0,-3.126740456E-2
6.785894210E-1,9.155111313E-1,-3.616413593E0,1.373291016E-3
6.810921900E-1,1.202461243E0,-3.693363667E0,1.063733101E-1
6.835948820E-1,1.501561165E0,-3.700413704E0,2.143733501E-1
6.860976500E-1,1.779511452E0,-3.628413677E0,3.654234409E-1
6.886004190E-1,1.949460983E0,-3.633363724E0,5.814232826E-1
6.911031880E-1,1.937461853E0,-3.602463722E0,7.654731274E-1
6.936059570E-1,2.117461205E0,-3.638463497E0,8.994233608E-1
6.961087260E-1,2.402461052E0,-3.702363491E0,1.098473310E0
6.986112670E-1,2.621387482E0,-2.812279701E0,2.041054487E0
7.011140340E-1,2.737679482E0,-2.794130087E0,2.410699368E0
7.036168080E-1,2.865189552E0,-2.865330458E0,2.589972734E0
7.061198080E-1,2.813113213E0,-2.609502792E0,2.885543346E0
7.086223490E-1,2.744113922E0,-2.556552887E0,2.948543549E0
7.111251250E-1,3.180994987E0,-2.508613586E0,3.141794920E0
7.136278940E-1,3.553215981E0,-2.451504946E0,3.345749855E0
7.161306640E-1,3.764556885E0,-2.413308144E0,3.531839609E0
7.186334330E-1,3.971377373E0,-2.233246803E0,3.679035187E0
7.211361270E-1,4.171820641E0,-2.018354177E0,3.784396172E0
7.236389710E-1,4.167048454E0,-1.903464556E0,3.654545307E0
7.261416760E-1,4.048092842E0,-1.677234411E0,3.415377140E0
7.286444430E-1,4.313106537E0,-1.751411438E0,3.036671162E0
7.311472120E-1,4.578617096E0,-1.628909588E0,2.937991142E0
7.336499990E-1,4.649405479E0,-1.635396957E0,2.758192539E0
7.361527690E-1,4.800455093E0,-1.661496639E0,2.497192383E0
7.386555380E-1,4.966505051E0,-1.714446545E0,2.181142330E0
7.411583070E-1,5.095505714E0,-1.738446712E0,1.927192211E0
7.436608480E-1,5.150405884E0,-1.764396667E0,1.728142262E0
7.461636150E-1,5.265455246E0,-1.762446880E0,1.580242157E0
7.486663840E-1,5.382455826E0,-1.764396667E0,1.391242266E0
7.511691530E-1,5.507405281E0,-1.745496750E0,1.194142342E0
7.536719220E-1,5.943711281E0,-9.848132133E-1,1.493841767E0
7.561746920E-1,6.158654213E0,-8.600196838E-1,1.397610068E0
7.586774610E-1,6.296854973E0,-7.636013031E-1,1.356761456E0
7.611802300E-1,6.458287239E0,-7.547025681E-1,1.352683425E0
7.636829990E-1,6.624670029E0,-6.813511848E-1,1.374320865E0
7.661857690E-1,6.758107185E0,-6.238484383E-1,1.468019485E0
7.686885540E-1,6.954970360E0,-4.711470604E-1,1.571985722E0
7.711912470E-1,7.132655144E0,-3.939027786E-1,1.650571823E0
7.736940090E-1,7.306660652E0,-4.300527573E-1,1.779105663E0
7.761967790E-1,7.447660446E0,-4.341025352E-1,1.901055813E0
7.786995480E-1,7.658710480E0,-4.660525322E-1,2.195055723E0
7.812023170E-1,7.704760551E0,-4.821028709E-1,2.499105692E0
7.837050860E-1,7.521760941E0,-4.440026283E-1,2.705055714E0
7.862078560E-1,7.601710320E0,-4.990525246E-1,2.899155855E0
7.887103960E-1,8.000711441E0,-5.880026817E-1,3.065055847E0
7.912131630E-1,8.635660172E0,-8.751025200E-1,3.299056053E0
7.937159330E-1,9.691597939E0,-5.622658730E-1,3.602891207E0
7.962187020E-1,1.006791115E1,-4.190759659E-1,3.712881327E0
7.987214380E-1,1.014673996E1,-1.188540459E-1,3.826573849E0
8.012242070E-1,1.012220764E1,2.654433250E-1,3.820183754E0
8.037269760E-1,1.003279495E1,6.077384949E-1,3.771843195E0
8.062297550E-1,1.010645676E1,8.943409920E-1,3.677321434E0
8.087324490E-1,1.020428467E1,9.733181000E-1,3.429158926E0
8.112352790E-1,1.035472679E1,1.032660961E0,3.105355501E0
8.137380500E-1,1.044491577E1,1.012106419E0,2.704081059E0
8.162407430E-1,1.049786568E1,9.410066605E-1,2.256031036E0
8.187435100E-1,1.054286575E1,9.450564384E-1,1.653031111E0
8.212462790E-1,1.055081558E1,9.311065674E-1,1.119030952E0
8.237490480E-1,1.061981583E1,1.000106335E0,5.460309386E-1
8.262518180E-1,1.061786461E1,1.132106304E0,-2.396911383E-2
8.287545870E-1,1.058891487E1,1.257056713E0,-5.969691277E-1
8.312573560E-1,1.057886505E1,1.400006294E0,-1.099919081E0
8.337599020E-1,1.096659660E1,1.913918018E0,-1.510485888E0
8.362626690E-1,1.105669212E1,2.070251465E0,-1.946333170E0
8.387654380E-1,1.110536671E1,2.200558662E0,-2.338154793E0
8.412681970E-1,1.123239899E1,2.302548885E0,-2.659795761E0
8.437709670E-1,1.132093430E1,2.418401241E0,-2.933109760E0
8.462737360E-1,1.138485909E1,2.521217823E0,-3.100211143E0
8.487765050E-1,1.145010281E1,2.676721573E0,-3.227936268E0
8.512792740E-1,1.153442478E1,2.766968250E0,-3.560569525E0
8.537820390E-1,1.164432907E1,2.869015217E0,-4.625399113E0
8.562847330E-1,1.170716286E1,3.051871300E0,-4.939298630E0
8.587875770E-1,1.156372356E1,3.091481686E0,-4.782363892E0
8.612903480E-1,1.147267246E1,3.170531750E0,-4.408413887E0
8.637930410E-1,1.135267353E1,3.307481527E0,-3.965313673E0
8.662958080E-1,1.113277340E1,3.324431658E0,-3.491313696E0
8.687985770E-1,1.096477222E1,3.295481682E0,-3.052413702E0
8.713013460E-1,1.070572376E1,3.202481747E0,-2.509413719E0
8.738041160E-1,1.048777294E1,3.113531590E0,-1.807413578E0
8.763068850E-1,1.039972210E1,3.099431515E0,-1.007313609E0
8.788096490E-1,1.064083576E1,3.372097492E0,-7.651556134E-1
8.813124180E-1,1.053775024E1,3.351236343E0,-7.418664694E-1
8.838149590E-1,1.041804886E1,3.378971577E0,-6.245856285E-1
8.863177120E-1,1.033838558E1,3.425735474E0,-5.541867018E-1
8.888204810E-1,1.029515457E1,3.511792183E0,-5.758026838E-1
8.913232500E-1,1.030536842E1,3.496391296E0,-5.924598575E-1
8.938260150E-1,1.042329597E1,3.550128937E0,-7.699699998E-1
8.963287790E-1,1.048967171E1,3.605806589E0,-9.875210524E-1
8.988315480E-1,1.048272991E1,3.680255413E0,-1.081011295E0
9.013343170E-1,1.040193748E1,3.753763914E0,-1.176571727E0
9.038370630E-1,1.026534081E1,3.913554668E0,-1.290943027E0
9.063398330E-1,1.009792423E1,4.077608585E0,-1.311529398E0
9.088426030E-1,9.903975487E0,4.197608471E0,-1.416529417E0
9.113452950E-1,9.797924995E0,4.420508385E0,-1.534579396E0
9.138480630E-1,9.768975258E0,4.540508270E0,-1.675579429E0
9.163508320E-1,9.778875351E0,4.659608841E0,-1.879579425E0
9.188536010E-1,9.826874733E0,4.753508568E0,-2.089579344E0
9.213563700E-1,9.883875847E0,4.849508286E0,-2.286529541E0
9.238591400E-1,9.939974785E0,5.002508640E0,-2.494579554E0
9.263619090E-1,1.006228638E1,5.103230476E0,-2.790411711E0
9.288646780E-1,1.015954781E1,5.213135719E0,-3.039981365E0
9.313674470E-1,1.030770683E1,5.286424637E0,-3.323190451E0
9.338699880E-1,1.043460655E1,5.394424438E0,-3.706140518E0
9.363729860E-1,1.054527283E1,5.461972713E0,-4.063706398E0
9.388757570E-1,1.067920113E1,5.580405712E0,-4.428557396E0
9.413782950E-1,1.090522194E1,5.670009613E0,-4.904411793E0
9.438810630E-1,1.101437569E1,5.792032719E0,-5.353371620E0
9.463838370E-1,1.120264816E1,5.903687477E0,-5.764271259E0
9.488866060E-1,1.133646488E1,5.980045319E0,-6.158239841E0
9.513893750E-1,1.151121712E1,6.083760738E0,-6.549487114E0
9.538921210E-1,1.153053188E1,6.137612820E0,-6.780290604E0
9.563948950E-1,1.134605408E1,6.066993237E0,-7.287651539E0
9.588976640E-1,1.055475426E1,5.972122669E0,-8.969212532E0
9.614003580E-1,9.367556572E0,5.894224644E0,-1.112657356E1
9.639031260E-1,8.089556694E0,5.750225067E0,-1.358852386E1
9.664058950E-1,6.671606064E0,5.532124519E0,-1.541057396E1
9.689086640E-1,5.308556557E0,5.259124756E0,-1.659452438E1
9.714114330E-1,4.213556290E0,4.826224804E0,-1.716152382E1
9.739142030E-1,3.447656631E0,4.325224876E0,-1.723547363E1
9.764169720E-1,2.712656021E0,3.865174770E0,-1.710452461E1
9.789197410E-1,-7.553439140E-1,3.803224802E0,-1.561652374E1
9.814222910E-1,-6.754932404E-1,3.218135834E0,-1.500243092E1
9.839252890E-1,7.207322121E-1,2.649893284E0,-1.442998409E1
9.864280600E-1,-1.640329361E-1,2.546131134E0,-1.247760010E1
9.889308480E-1,-3.769688606E-1,2.559496403E0,-1.087584019E1
9.914333860E-1,-5.929193497E-1,2.644609928E0,-9.464379311E0
9.939361540E-1,-5.196561813E-1,2.888750553E0,-8.151339531E0
9.964389230E-1,-6.223249435E-2,2.939018250E0,-6.835430622E0
9.989416920E-1,5.378975868E-1,2.936877489E0,-5.711616516E0
1.001444461E0,8.942489624E-1,3.063004494E0,-4.578955173E0
1.003947236E0,1.081312656E0,2.964227438E0,-3.484646082E0
1.006450005E0,1.629412174E0,2.988227367E0,-2.899646044E0
1.008952774E0,1.792312145E0,3.033227444E0,-2.478746176E0
1.011455468E0,1.725412846E0,3.105227232E0,-2.157746077E0
1.013958236E0,1.476412296E0,3.043127298E0,-2.183696032E0
1.016461005E0,8.794121742E-1,3.168227434E0,-2.186696053E0
1.018963774E0,9.154124260E-1,3.002177238E0,-2.166745901E0
1.021466543E0,1.152412891E0,2.897177219E0,-2.066695929E0
1.023969313E0,7.251644135E-1,2.642100334E0,-1.574040413E0
1.026472072E0,1.806888580E-1,2.591154099E0,-8.075123429E-1
1.028974841E0,-6.636428833E-1,2.381432295E0,1.538358629E-2
1.031477610E0,-1.329741955E0,2.076417923E0,3.599229455E-1
1.033980366E0,-2.215978146E0,1.902422905E0,6.424885988E-1
1.036483150E0,-3.358224392E0,1.699703217E0,3.891939521E-1
1.038985920E0,-3.525025368E0,1.577891350E0,-8.362147212E-1
1.041488459E0,-2.348046303E0,1.528317928E0,-2.380626917E0
1.043991226E0,3.927760124E-1,1.931588411E0,-3.033902645E0
1.046493995E0,2.780775547E0,2.436638594E0,-2.372852802E0
1.048996764E0,3.788775921E0,2.781638622E0,-1.927802801E0
1.051499533E0,5.077725887E0,3.145538568E0,-1.781852841E0
1.054002303E0,5.956726551E0,3.509588480E0,-8.238027692E-1
1.056505072E0,4.976775646E0,3.492638588E0,-1.019852757E0
1.059007841E0,3.987825871E0,3.296588659E0,-1.719902754E0
1.061510610E0,3.647776127E0,3.143588543E0,-1.783802748E0
1.064013376E0,3.218464851E0,2.582681417E0,-1.503565431E0
1.066516146E0,3.208035469E0,2.500244856E0,-1.346947193E0
1.069018916E0,3.139612198E0,2.368029833E0,-9.071599245E-1
1.071521689E0,3.071167946E0,2.107513666E0,-1.395032406E-1
1.074024382E0,2.968383789E0,1.891327620E0,3.375430405E-1
1.076527154E0,2.757015228E0,1.778369904E0,8.242732882E-1
1.079029923E0,2.386100769E0,1.868780375E0,1.114323854E0
1.081532692E0,1.905261993E0,1.900721073E0,1.405759096E0
1.084035462E0,1.543658257E0,1.705010414E0,1.830004096E0
1.086538207E0,1.675002098E0,1.555180311E0,2.721476793E0
1.089040976E0,2.241147041E0,1.413015604E0,4.364762783E0
1.091543745E0,2.468622208E0,1.154601336E0,5.587130070E0
1.094046276E0,1.054086685E0,8.727533817E-1,5.197926044E0
1.096549043E0,-1.909132004E-1,7.527534962E-1,3.751025915E0
1.099051812E0,-5.719127655E-1,9.537534714E-1,3.472925901E0
1.101554812E0,-5.989131927E-1,1.425653458E0,3.265025854E0
1.104057353E0,-1.886272430E-2,1.976753473E0,3.262925863E0
1.106560120E0,3.310871124E-1,2.323703527E0,4.369026184E0
1.109062889E0,2.590866089E-1,2.328653574E0,4.550976276E0
1.111565658E0,2.710866928E-1,2.095703602E0,3.790025949E0
1.114068428E0,-4.016580582E-1,1.109006643E0,2.686259031E0
1.116571197E0,-1.427062988E0,1.121368885E0,1.363459468E0
1.119073966E0,-9.028978348E-1,1.203796625E0,1.502756715E0
1.121576774E0,2.518167496E-1,1.300764561E0,1.111242056E0
1.124079544E0,2.091789246E-1,1.305633664E0,1.326864243E0
1.126582238E0,-7.086839676E-1,1.259059310E0,9.298143983E-1
1.129085005E0,-1.378086090E0,1.264708638E0,-2.914305776E-2
1.131587774E0,-1.913632870E0,9.477877617E-1,-2.326248586E-2
1.134090544E0,-2.698941708E0,4.715480804E-1,1.247564629E-1
1.136593294E0,-3.309418201E0,9.109306335E-2,4.380784929E-2
1.139096063E0,-3.858767033E0,-1.414873600E-1,-4.066173732E-1
1.141598832E0,-4.745107651E0,-1.972861290E-1,-7.149038911E-1
1.144101602E0,-5.270107746E0,-2.913360596E-1,-2.959538102E-1
1.146604372E0,-5.433157444E0,-6.003360748E-1,9.029961824E-1
1.149107142E0,-5.373157501E0,-1.098335981E0,1.402046323E0
1.151609681E0,-5.179057598E0,-1.421285868E0,2.009996176E0
1.154112679E0,-5.117107868E0,-1.421285868E0,2.495996237E0
1.156615450E0,-4.865107536E0,-1.304286003E0,2.458046436E0
1.159118219E0,-4.733107567E0,-1.277286053E0,1.892996311E0
1.161620758E0,-4.721673012E0,-2.116646290E0,1.445840359E0
1.164123525E0,-4.132116318E0,-2.121160507E0,8.206652403E-1
1.166626293E0,-4.113211155E0,-1.639206052E0,4.461185634E-1
1.169129062E0,-5.310945034E0,-8.171489239E-1,-3.220299780E-1
1.171631831E0,-5.216818333E0,-7.887898684E-1,-5.150264502E-1
1.174134635E0,-5.094262123E0,-9.794988632E-1,-4.056070447E-1
1.176637404E0,-5.039361954E0,-8.384988308E-1,-7.287070751E-1
1.179140173E0,-4.838132858E0,-9.150496721E-1,-1.200528145E0
1.181642952E0,-5.169082642E0,-6.584570408E-1,-1.460810423E0
1.184145722E0,-5.183032513E0,-4.264070988E-1,-1.707860470E0
1.186648411E0,-4.722449780E0,-4.334404469E-1,-1.534693122E0
1.189151255E0,-4.543499947E0,-1.895403862E-1,-1.572643161E0
1.191654026E0,-4.545450211E0,2.745596170E-1,-1.579693198E0
1.194156719E0,-4.777500153E0,6.705596447E-1,-1.807693124E0
1.196659486E0,-4.883399963E0,1.077509642E0,-2.147743225E0
1.199162255E0,-4.579500198E0,1.106459618E0,-2.501743317E0
1.201665024E0,-3.901499748E0,8.955596089E-1,-2.801743269E0
1.204167794E0,-3.510449886E0,7.415096164E-1,-2.923693419E0
1.206670563E0,-3.437077045E0,6.524463296E-1,-3.458381653E0
1.209173332E0,-2.933032990E0,8.490083218E-1,-3.971304417E0
1.211676101E0,-2.220717907E0,1.271348000E0,-4.155260086E0
1.214178856E0,-1.425864220E0,2.342309237E0,-4.317584515E0
1.216681396E0,-1.330629349E0,1.922596455E0,-3.588289738E0
1.219184163E0,-7.508831024E-1,7.633652687E-1,-2.249355316E0
1.221686937E0,-5.716056824E-1,3.024514019E-1,-6.892986298E-1
1.224189707E0,-9.426431656E-1,3.175458908E-1,3.852766454E-1
1.226692707E0,-1.321956635E0,4.163846970E-1,1.353132725E0
1.229195247E0,-1.908906460E0,4.853847027E-1,1.413132668E0
1.231698014E0,-2.505006313E0,5.263347030E-1,1.072182655E0
1.234200784E0,-2.901906490E0,6.343346834E-1,8.711825609E-1
1.236703553E0,-3.156006336E0,7.922847271E-1,3.751325905E-1
1.239206322E0,-3.246906757E0,8.173347116E-1,-3.658674657E-1
1.241709091E0,-3.147006512E0,6.632847190E-1,-5.979174376E-1
1.244211861E0,-3.072906494E0,7.352846861E-1,-9.528174400E-1
1.246714640E0,-2.970955849E0,7.259982228E-1,-1.327622294E0
1.249217334E0,-2.591229916E0,9.037668109E-1,-1.449684739E0
1.251720101E0,-2.167180061E0,1.061716795E0,-1.518684745E0
1.254222871E0,-1.860950470E0,1.218840599E0,-1.582705021E0
1.256725635E0,-1.560682297E0,1.223044276E0,-1.582610250E0
1.259228404E0,-9.610023499E-1,1.078903079E0,-1.437699080E0
1.261731197E0,-9.822254181E-1,1.132277012E0,-1.247134805E0
1.264233967E0,-9.274263382E-1,1.181858063E0,-1.324669957E0
1.266736737E0,-6.892204285E-1,1.250012994E0,-1.430889130E0
1.269239507E0,-7.010488510E-1,1.326722383E0,-8.673270941E-1
1.271742276E0,-5.246105194E-1,1.202891827E0,-9.084916115E-1
1.274245040E0,-3.841810226E-1,1.084403992E0,-1.344971538E0
1.276747579E0,-3.745822906E-1,9.894340038E-1,-9.918031096E-1
1.279250346E0,-3.016176224E-1,9.410966635E-1,-7.253767848E-1
1.281753115E0,-3.806676865E-1,8.090966344E-1,-4.043767750E-1
1.284255885E0,-6.566677094E-1,7.871966362E-1,2.367232740E-1
1.286758654E0,-6.706171036E-1,5.381966233E-1,4.306732714E-1
1.289261423E0,-7.996177673E-1,4.471466243E-1,9.957233071E-1
1.291764192E0,-7.016677856E-1,4.951466322E-1,1.414673328E0
1.294266962E0,-5.456733704E-2,1.871966124E-1,1.711673379E0
1.296769732E0,7.014331818E-1,4.619660974E-2,2.183723211E0
1.299272493E0,1.768587112E0,-1.409907937E-1,2.345157385E0
1.301775262E0,2.277490616E0,-8.724173903E-2,2.747476816E0
1.304278055E0,2.718973160E0,1.217161119E-1,2.865968227E0
1.306780824E0,3.164507866E0,1.942604333E-1,2.794127941E0
1.309283517E0,3.303883553E0,3.517509103E-1,2.613649607E0
1.311786298E0,3.833380699E0,1.465157866E-1,1.751682878E0
1.314289082E0,4.042910576E0,7.331731915E-2,4.622333646E-1
1.316791851E0,4.300910950E0,-1.737326980E-1,-4.281666875E-2
1.319294620E0,4.471010208E0,-5.587827563E-1,-4.727166891E-1
1.321797389E0,4.534010887E0,-7.747827172E-1,9.962334037E-1
1.324300159E0,4.118960381E0,-8.947827220E-1,-4.637166858E-1
1.326802929E0,3.736010551E0,-1.159682751E0,-9.827167392E-1
1.329305699E0,2.870960236E0,-1.339682817E0,-6.957666874E-1
1.331808468E0,2.279960632E0,-1.605782747E0,-8.108167052E-1
1.334311237E0,1.672358513E0,-1.923974991E0,-1.129346609E0
1.336814006E0,7.263002396E-1,-2.122706890E0,-1.174363017E0
1.339316775E0,-1.432113647E-1,-2.428972244E0,-1.358151913E0
1.341819524E0,-3.981971741E-1,-2.810920954E0,-1.252659559E0
1.344322293E0,-4.755134583E-1,-3.081296921E0,-7.514363527E-1
1.346825062E0,-6.838626862E-1,-3.352759838E0,-2.634226084E-1
1.349327583E0,-1.487407684E0,-3.497854233E0,4.328236282E-1
1.351830350E0,-2.198755741E0,-3.523989439E0,5.678678155E-1
1.354333134E0,-2.811284065E0,-3.690169811E0,7.552860975E-1
1.356835903E0,-3.600957394E0,-3.888249397E0,1.549875021E0
1.359338687E0,-4.205358028E0,-4.089007854E0,1.982404232E0
1.361841456E0,-4.378261089E0,-4.294297695E0,2.693154097E0
1.364344226E0,-4.799648285E0,-4.477982044E0,3.091674089E0
1.366846995E0,-4.950698376E0,-4.985882282E0,3.304674149E0
1.369349764E0,-5.166698456E0,-5.337932110E0,3.285773993E0
1.371852533E0,-5.851748466E0,-5.320981979E0,4.528674126E0
1.374355303E0,-6.385748863E0,-5.234882355E0,4.901724339E0
1.376857997E0,-6.825698853E0,-5.339882374E0,5.244774342E0
1.379360841E0,-7.721648693E0,-5.339882374E0,5.304774284E0
1.381863612E0,-8.899748802E0,-5.090882301E0,4.702673912E0
1.384366324E0,-1.051374912E1,-4.743932247E0,1.843673944E0
1.386869091E0,-8.966534615E0,-5.988187790E0,-1.374604225E0
1.389371860E0,-7.799727917E0,-6.537416935E0,-5.540862679E-1
1.391874629E0,-7.720677853E0,-6.422367096E0,3.189137876E-1
1.394377423E0,-7.402940750E0,-5.875677109E0,3.934525847E-1
1.396880192E0,-6.774090290E0,-4.847640991E0,5.098739862E-1
1.399382951E0,-6.226978302E0,-3.614652634E0,4.829063416E-1
1.401885720E0,-6.404335022E0,-4.274074078E0,9.228670001E-1
1.404388489E0,-6.808562279E0,-5.431611538E0,1.911290526E0
1.406891269E0,-6.712456703E0,-6.742344856E0,2.733504534E0
1.409393809E0,-6.828014851E0,-7.911825180E0,3.285500288E0
1.411896576E0,-6.944637299E0,-8.679799080E0,3.569989204E0
1.414399346E0,-6.906291962E0,-9.643469810E0,4.338597775E0
1.416902346E0,-6.925341606E0,-1.057256985E1,5.131648064E0
1.419404886E0,-7.025241852E0,-1.095056915E1,5.785647869E0
1.421907653E0,-8.031291962E0,-1.083146954E1,5.322597980E0
1.424410423E0,-9.994341850E0,-1.034051991E1,2.994597435E0
1.426913192E0,-1.068434238E1,-1.039751911E1,2.879697800E0
1.429415961E0,-9.353241920E0,-1.073246956E1,3.948597908E0
1.431918730E0,-6.484341621E0,-1.082651997E1,5.193597794E0
1.434421500E0,-5.389341831E0,-1.050056934E1,5.337597847E0
1.436924283E0,-4.545425415E0,-9.174551964E0,4.213908672E0
1.439427052E0,-3.319170475E0,-8.798480988E0,3.873120070E0
1.441929821E0,-2.238090992E0,-8.662914276E0,3.424043417E0
1.444432585E0,-1.297386169E0,-8.593009949E0,2.950461388E0
1.446935355E0,-5.780401230E-1,-8.460521698E0,2.629572392E0
1.449438125E0,-1.167249680E-1,-8.448172569E0,2.195747852E0
1.451940895E0,3.437938690E-1,-7.923859596E0,1.851274729E0
1.454443588E0,2.474536896E-1,-7.232522011E0,1.674261212E0
1.456946365E0,-7.481956482E-2,-6.607695103E0,1.524331927E0
1.459449134E0,-3.995289803E-1,-5.516137123E0,1.379721045E0
1.461951903E0,-8.160877228E-1,-4.503496170E0,1.149376273E0
1.464454657E0,-7.591676712E-1,-3.982865810E0,6.822280884E-1
1.466957427E0,-4.002175331E-1,-3.256865025E0,2.922281027E-1
1.469460196E0,2.297821045E-1,-2.425865173E0,-1.817719340E-1
1.471962965E0,1.022832870E0,-2.061965466E0,-3.067219853E-1
1.474465734E0,1.240782738E0,-1.980965137E0,2.822804451E-2
1.476968504E0,1.324782372E0,-1.817915440E0,3.712780476E-1
1.479471274E0,1.230882645E0,-1.580915451E0,4.572280645E-1
1.481974044E0,1.515882492E0,-1.268915176E0,5.382280350E-1
1.484476813E0,2.656912804E0,3.411531448E-1,4.373732805E-1
1.486979582E0,2.717109203E0,8.910145760E-1,2.268481255E-1
1.489482337E0,2.846368790E0,1.406725883E0,-1.078339815E-1
1.491984876E0,2.977228642E0,2.001079559E0,-3.843902946E-1
1.494487644E0,2.849072933E0,2.685695648E0,-1.020285606E0
1.496990398E0,2.732979298E0,3.210683107E0,-1.847969294E0
1.499493398E0,2.343327999E0,3.310467720E0,-2.243357658E0
1.501995938E0,2.041604519E0,3.028253078E0,-2.625770807E0
1.504498936E0,1.315604210E0,2.047253132E0,-2.065820694E0
1.507001512E0,1.088572025E0,1.775585175E0,-2.966918230E0
1.509504279E0,1.087236404E0,1.317439556E0,-3.786796570E0
1.512007038E0,1.108684540E0,1.124327183E0,-4.198561668E0
1.514509807E0,1.283232212E0,8.753509521E-1,-4.646622181E0
1.517012577E0,1.882201195E0,5.443353653E-1,-4.634987831E0
1.519515332E0,1.914857864E0,3.694577217E-1,-4.476558208E0
1.522018101E0,2.046857834E0,2.644577026E-1,-4.088658333E0
1.524520870E0,2.379858494E0,1.254076958E-1,-3.691608191E0
1.527023640E0,2.573808193E0,1.153578758E-1,-3.236658335E0
1.529526410E0,2.518758297E0,2.184076309E-1,-2.735658169E0
1.532029180E0,2.434757710E0,4.633579254E-1,-2.414658308E0
1.534531872E0,3.090857983E0,3.744077682E-1,-2.031558275E0
1.537034717E0,4.671858311E0,3.054080009E-1,-1.765608311E0
1.539537411E0,6.998224258E0,8.538737297E-1,-1.430330157E0
1.542040255E0,7.610718250E0,5.072927475E-1,-4.241559505E-1
1.544543031E0,7.376324654E0,-1.951341629E-1,1.482477665E0
1.547045801E0,6.925478935E0,-6.030511856E-1,3.005716324E0
1.549548493E0,6.626170635E0,-8.638467789E-1,4.134928703E0
1.552051260E0,5.848336697E0,-1.024309158E0,4.784236908E0
1.554554009E0,4.696867466E0,-1.003266335E0,4.781855583E0
1.557056779E0,3.561269283E0,-8.391160965E-1,4.676983356E0
1.559559548E0,2.646269321E0,-9.951162338E-1,4.643983364E0
1.562062298E0,2.347074509E0,-1.330063820E0,4.601222515E0
1.564565067E0,2.443256855E0,-1.842782021E0,4.348331451E0
1.567067836E0,2.570306778E0,-2.148781776E0,3.838331938E0
1.569570616E0,2.641334057E0,-2.044611931E0,3.131829023E0
1.572073386E0,2.448333025E0,-1.636240005E0,2.427071095E0
1.574576117E0,2.099416733E0,-1.122593880E0,1.551297545E0
1.577078656E0,1.629466534E0,-7.274932861E-1,5.572475195E-1
1.579581654E0,8.413662910E-1,4.845619202E-2,-1.857025623E-1
1.582084194E0,-3.365836143E-1,9.154567719E-1,-8.896526098E-1
1.584587192E0,-7.006335258E-1,1.322406769E0,2.572474480E-1
1.587089963E0,-1.502533674E0,1.813506603E0,6.692974567E-1
1.589592733E0,-2.037583828E0,2.070456505E0,1.093347430E0
1.592095502E0,-2.252533674E0,2.302506924E0,1.215297580E0
1.594598040E0,-1.932510376E0,2.782585621E0,1.377523661E0
1.597100808E0,-2.298950195E0,3.199673176E0,1.328520536E0
1.599603611E0,-2.769955635E0,3.860888481E0,1.436287999E0
1.602106380E0,-3.393371344E0,4.432835579E0,1.360879064E0
1.604609144E0,-4.142761707E0,5.043973923E0,1.434098005E0
1.607111913E0,-4.861777306E0,5.532357216E0,1.450814724E0
1.609614683E0,-4.584146023E0,4.931589603E0,5.115208626E-1
1.612117471E0,-3.933434963E0,4.504114151E0,2.158693314E0
1.614620240E0,-4.159844398E0,5.136678696E0,2.560295582E0
1.617123009E0,-4.119439125E0,5.516835213E0,1.655299187E0
1.619625779E0,-3.884018660E0,5.393889904E0,1.283867002E0
1.622128549E0,-3.222342730E0,5.334048748E0,1.751589417E0
1.624631242E0,-2.951795816E0,5.245084286E0,2.061670780E0
1.627134072E0,-2.396794796E0,5.246262550E0,2.274295092E0
1.629636767E0,-1.655638218E0,5.310317039E0,2.579068184E0
1.632139616E0,-1.333746672E0,5.268694401E0,2.924292088E0
1.634642387E0,-1.137696743E0,5.290744305E0,3.250242233E0
1.637145156E0,-9.077466726E-1,5.330644608E0,3.748241901E0
1.639647926E0,-6.947466731E-1,5.318644524E0,4.167191982E0
1.642150618E0,-5.576466322E-1,5.249644279E0,4.234241962E0
1.644653385E0,-5.537467003E-1,5.194744587E0,4.299191952E0
1.647156154E0,-4.956966639E-1,5.002744198E0,4.594242096E0
1.649658924E0,-4.307466745E-1,4.921744347E0,4.917191982E0
1.652161693E0,1.059439421E0,4.968567371E0,4.972781181E0
1.654664462E0,1.546964169E0,4.780698776E0,4.805400848E0
1.657167231E0,1.840615511E0,4.496805668E0,4.525111675E0
1.659669996E0,2.283191919E0,3.953919411E0,4.318377972E0
1.662172766E0,2.468481541E0,3.105707645E0,4.095754147E0
1.664675536E0,2.719163895E0,1.963801384E0,3.666417122E0
1.667178193E0,3.576658487E0,7.300863266E-1,4.011385918E0
1.669680962E0,4.419571877E0,-5.587558746E-1,3.772751808E0
1.672183516E0,5.043697834E0,-2.045768738E0,2.556056023E0
1.674686514E0,5.623748302E0,-3.573819160E0,2.386106014E0
1.677189285E0,5.639798164E0,-4.974819183E0,2.560105801E0
1.679692054E0,5.247697830E0,-6.145719528E0,2.419106007E0
1.682194824E0,4.497697830E0,-7.453720093E0,2.244056225E0
1.684697593E0,3.046747684E0,-8.821720123E0,2.127056122E0
1.687200362E0,1.956697702E0,-1.039776993E1,2.364056110E0
1.689702901E0,1.185697675E0,-1.184871864E1,2.460055828E0
1.692205668E0,1.765001297E0,-1.284784698E1,2.371593714E0
1.694708437E0,6.980512142E-1,-1.379374695E1,1.844643354E0
1.697211206E0,-1.785948753E0,-1.537984657E1,1.583643675E0
1.699713976E0,-2.623998880E0,-1.627084732E1,1.449543476E0
1.702216745E0,-3.005385399E0,-1.689060402E1,1.253253460E0
1.704719745E0,-3.688485146E0,-1.748970413E1,1.644303322E0
1.707222270E0,-4.723485470E0,-1.789860535E1,1.891353607E0
1.709725038E0,-5.216385365E0,-1.782465553E1,1.900353432E0
1.712227807E0,-4.620435238E0,-1.717560387E1,1.459353447E0
1.714730576E0,-4.924485207E0,-1.683570480E1,6.313533783E-1
1.717233360E0,-4.823385239E0,-1.666365433E1,1.593034267E-1
1.719736129E0,-3.825435162E0,-1.588260460E1,-6.716966629E-1
1.722238923E0,-2.378914833E0,-1.509256649E1,-2.344038010E0
1.724741692E0,-1.663812518E0,-1.367973709E1,-3.091984510E0
1.727244461E0,-9.932360649E-1,-1.214665604E1,-4.284654140E0
1.729747230E0,-2.668211460E-1,-1.056692982E1,-5.165552139E0
1.732250000E0,4.540574551E-1,-9.028684616E0,-5.917775631E0
1.734752794E0,9.766260386E-1,-7.420217514E0,-6.428549767E0
1.737255564E0,1.275576115E0,-5.968217850E0,-6.950550079E0
1.739758333E0,1.381626129E0,-4.598267555E0,-7.493550301E0
1.742261102E0,1.407576084E0,-3.334217072E0,-7.872600079E0
1.744763795E0,1.328676105E0,-2.143217087E0,-8.090549469E0
1.747266562E0,1.345626116E0,-1.161167145E0,-8.200500488E0
1.749769331E0,1.412676096E0,-2.731676102E-1,-7.800600052E0
1.752272178E0,1.453626156E0,4.618330002E-1,-7.271550179E0
1.754774872E0,2.190773010E0,7.947297096E-1,-7.040319443E0
1.757277716E0,2.284430027E0,1.296998024E0,-6.311027050E0
1.759780376E0,2.566588879E0,1.817635059E0,-5.614995003E0
1.762283144E0,2.738416672E0,2.136504650E0,-4.818032742E0
1.764785908E0,2.579753160E0,2.406309605E0,-3.781692743E0
1.767288677E0,2.813767910E0,2.571703911E0,-2.922591686E0
1.769791446E0,2.742537975E0,2.769297600E0,-2.083404064E0
1.772294202E0,2.685012341E0,2.872057915E0,-1.240616083E0
1.774796971E0,2.850436687E0,2.862082005E0,-5.995912552E-1
1.777299740E0,3.216757774E0,2.756268501E0,-7.630109787E-2
1.779802528E0,3.144485950E0,2.439810276E0,6.784594059E-1
1.782305297E0,3.448535919E0,1.991760254E0,1.243359566E0
1.784808067E0,3.616536140E0,1.588860035E0,1.545459270E0
1.787310837E0,3.350435972E0,1.073760033E0,1.763409615E0
1.789813607E0,2.924436092E0,4.797601700E-1,2.000409603E0
1.792316376E0,2.263535976E0,-1.232395172E-1,2.041359425E0
1.794819145E0,1.516535997E0,-1.086239815E0,1.782459259E0
1.797321914E0,5.004358292E-1,-2.106240273E0,1.361409187E0
1.799824453E0,-1.303705215E0,-2.664252281E0,1.065485716E0
1.802327221E0,-3.850534916E0,-2.515191078E0,9.035921097E-1
1.804830226E0,-6.155066490E0,-2.348998070E0,6.524322033E-1
1.807332766E0,-8.197137833E0,-2.292675972E0,2.319889069E-1
1.809835764E0,-9.727228165E0,-2.317695618E0,-3.280882835E-1
1.812338515E0,-1.079327774E1,-2.671695709E0,-1.192088366E0
1.814841290E0,-1.117960548E1,-3.087829590E0,-2.170362473E0
1.817344059E0,-1.086376572E1,-3.602948189E0,-3.129992008E0
1.819846597E0,-9.667347908E0,-4.053232193E0,-3.827694178E0
1.822349364E0,-7.789348602E0,-4.192281723E0,-4.170594215E0
1.824852134E0,-5.756398201E0,-3.933232307E0,-4.153644085E0
1.827354903E0,-3.734398127E0,-3.610281944E0,-3.794694185E0
1.829857672E0,-1.751398325E0,-3.349282265E0,-3.265644312E0
1.832360441E0,1.382203102E-1,-3.184981346E0,-2.625728369E0
1.834863211E0,1.407220602E0,-2.956981659E0,-2.088728428E0
1.837365980E0,2.475220680E0,-2.821082115E0,-1.547828317E0
1.839868735E0,3.263612270E0,-2.714853287E0,-1.106338024E0
1.842371504E0,3.794493198E0,-2.691672325E0,-7.963037491E-1
1.844874274E0,4.158567905E0,-2.710122108E0,-5.907623768E-1
1.847377150E0,4.414882183E0,-2.755180359E0,-5.366761684E-1
1.849879920E0,4.697932243E0,-2.815180779E0,-4.976761341E-1
1.852382689E0,4.634610176E0,-2.759373665E0,-5.111541748E-1
1.854885444E0,5.089558125E0,-2.904454231E0,-6.545743942E-1
1.857388213E0,5.382844925E0,-3.405886650E0,-8.515603542E-1
1.859890992E0,5.336689472E0,-3.662344933E0,-9.231700897E-1
1.862393761E0,5.566645145E0,-3.865612030E0,-1.181077719E0
1.864896530E0,5.808910370E0,-4.101887703E0,-1.373460650E0
1.867399318E0,5.971130371E0,-4.252857208E0,-1.504675865E0
1.869902087E0,6.127130032E0,-4.305807114E0,-1.652725816E0
1.872404856E0,6.417079926E0,-4.293807030E0,-1.769725919E0
1.874907625E0,6.910130501E0,-4.808907509E0,-1.856725812E0
1.877410395E0,6.649129868E0,-5.014857292E0,-1.899775863E0
1.879913089E0,6.659029961E0,-5.134857178E0,-2.019775867E0
1.882415856E0,6.656030178E0,-5.265807152E0,-2.105725765E0
1.884918625E0,6.597080231E0,-5.340806961E0,-2.090725899E0
1.887421395E0,6.577451706E0,-5.432991028E0,-2.127897739E0
1.889924164E0,6.499445438E0,-5.365028381E0,-2.260322332E0
1.892426933E0,6.222324848E0,-5.254570007E0,-2.388953209E0
1.894929769E0,5.785373688E0,-5.088170052E0,-2.537142754E0
1.897432464E0,5.334687233E0,-4.860083580E0,-2.706250191E0
1.899935236E0,4.802786827E0,-4.623084068E0,-2.933200121E0
1.902438005E0,4.421820641E0,-4.427577972E0,-3.241955996E0
1.904940774E0,4.040681839E0,-4.253104210E0,-3.602113485E0
1.907443544E0,3.661073446E0,-4.090287209E0,-3.893029451E0
1.909946318E0,3.283073425E0,-3.927387238E0,-4.220929623E0
1.912449087E0,2.942235708E0,-3.842438698E0,-4.534827232E0
1.914951860E0,2.637434483E0,-3.724200249E0,-4.873921394E0
1.917454630E0,2.402865887E0,-3.630234718E0,-5.158142090E0
1.919957400E0,2.265915871E0,-3.613284111E0,-5.398141861E0
1.922460175E0,2.172943115E0,-3.559792519E0,-5.588374138E0
1.924962944E0,2.121942997E0,-3.509693146E0,-5.753374100E0
1.927465713E0,2.114398479E0,-3.453521729E0,-5.803485870E0
1.929968482E0,2.093398571E0,-3.429521561E0,-5.841585636E0
1.932471251E0,2.124448538E0,-3.426521301E0,-5.791485786E0
1.934974020E0,2.207897186E0,-3.446855545E0,-5.618701458E0
1.937476789E0,2.316703320E0,-3.438996315E0,-5.453081608E0
1.939979563E0,2.415269375E0,-3.521760941E0,-5.330916405E0
1.942482332E0,2.518761635E0,-3.627847672E0,-5.249264240E0
1.944984872E0,2.586331844E0,-3.708045006E0,-5.115195274E0
1.947487870E0,2.663117647E0,-3.811048508E0,-4.994804382E0
1.949990661E0,2.770623446E0,-3.923698425E0,-4.879936695E0
1.952493430E0,2.861657619E0,-4.093586922E0,-4.815566063E0
1.954996199E0,2.974434614E0,-4.246696472E0,-4.793337822E0
1.957498940E0,3.027417660E0,-4.412540436E0,-4.808424473E0
1.960001710E0,3.105587006E0,-4.538026810E0,-4.826602936E0
1.962504479E0,3.204061270E0,-4.600411415E0,-4.901947975E0
1.965007017E0,3.300061226E0,-4.629362106E0,-5.062897682E0
1.967509785E0,3.405061245E0,-4.684412003E0,-5.306947708E0
1.970012554E0,3.561061382E0,-4.662362099E0,-5.538847923E0
1.972515323E0,3.729061365E0,-4.612411499E0,-5.785897732E0
1.975018092E0,3.894061327E0,-4.514311790E0,-6.063847542E0
1.977521092E0,4.002061367E0,-4.420412064E0,-6.309847832E0
1.980023633E0,4.050061226E0,-4.365362167E0,-6.590948105E0
1.982526650E0,4.040557861E0,-4.061532021E0,-6.570043087E0
1.985029421E0,4.080446720E0,-3.959024429E0,-6.780749321E0
1.987531959E0,4.091553211E0,-3.935088158E0,-7.160903931E0
1.990034727E0,4.108912468E0,-3.926265717E0,-7.561909676E0
1.992537520E0,4.037955284E0,-3.907711983E0,-7.758680344E0
1.995040289E0,3.889546394E0,-3.885794640E0,-7.799494743E0
1.997543058E0,3.625711441E0,-3.890909195E0,-7.653353214E0
2.000045852E0,3.402183056E0,-3.847462654E0,-7.343891144E0
2.002548621E0,3.203133106E0,-3.847462654E0,-7.051990986E0
2.005051390E0,2.925052166E0,-3.803342819E0,-6.665277481E0
2.007554145E0,2.638525963E0,-3.764822006E0,-6.211898327E0
2.010057145E0,2.465507030E0,-3.759598732E0,-5.787320614E0
2.012559686E0,2.257349014E0,-3.839658737E0,-5.295380116E0
2.015062453E0,2.004298687E0,-4.038558960E0,-4.725379944E0
2.017565222E0,1.738348722E0,-4.261609077E0,-4.222429752E0
2.020067991E0,1.611298800E0,-4.555608749E0,-3.947479725E0
2.022570761E0,1.505248785E0,-4.804609299E0,-3.758479595E0
2.025073530E0,1.151248693E0,-5.130558968E0,-3.494479656E0
2.027576299E0,6.482987404E-1,-5.269609451E0,-2.989429951E0
2.030079068E0,4.183487892E-1,-5.257609367E0,-2.907379627E0
2.032581837E0,-7.480573654E-2,-5.155777931E0,-1.936496377E0
2.035084607E0,-7.080259323E-1,-5.148707390E0,-1.140491128E0
2.037587377E0,-1.355860949E0,-5.125527382E0,-2.940152884E-1
2.040090146E0,-1.818727016E0,-5.071989059E0,5.477591753E-1
2.042592915E0,-1.934814930E0,-4.250570297E0,1.204095483E0
2.045095684E0,-2.555246830E0,-4.337328911E0,2.049776316E0
2.047598453E0,-2.979621649E0,-4.912117004E0,2.884492636E0
2.050101213E0,-2.991390467E0,-5.163371086E0,3.805116415E0
2.052603982E0,-3.161666155E0,-5.152309418E0,4.911186218E0
2.055106741E0,-3.329824686E0,-5.086744308E0,6.019346714E0
2.057609510E0,-3.478501558E0,-5.000780106E0,7.236404419E0
2.060112279E0,-3.892722368E0,-4.958896637E0,8.459815025E0
2.062615049E0,-2.597693920E0,-4.634361267E0,8.633630753E0
2.065117819E0,-3.169643879E0,-4.706361771E0,8.444630623E0
2.067620589E0,-3.964643955E0,-4.993461609E0,9.280730247E0
2.070123358E0,-3.483593941E0,-4.691361427E0,9.244730949E0
2.072626127E0,-3.095694065E0,-4.538361549E0,9.208730698E0
2.075128896E0,-3.071693897E0,-4.330461502E0,9.337730408E0
2.077631665E0,-3.066594124E0,-4.064361572E0,9.421730995E0
2.080134434E0,-2.951694012E0,-3.920361519E0,9.630681038E0
2.082637203E0,-3.214327574E0,-3.619612694E0,1.050663567E1
2.085139972E0,-3.442820549E0,-3.332435608E0,1.053728294E1
2.087642707E0,-3.455244780E0,-2.968083382E0,1.049515724E1
2.090145401E0,-3.452457428E0,-2.650878906E0,1.026740646E1
2.092648154E0,-3.668205261E0,-2.393122673E0,1.008618259E1
2.095150924E0,-4.162105560E0,-2.132018089E0,1.011013985E1
2.097653669E0,-4.709503174E0,-1.830653191E0,1.022645378E1
2.100156515E0,-5.127000809E0,-1.622051239E0,1.021241379E1
2.102659209E0,-5.487962723E0,-1.629319191E0,1.013816547E1
2.105162058E0,-5.173734665E0,-1.350591660E0,9.694855690E0
2.107664752E0,-4.809684753E0,-1.115541458E0,9.175855637E0
2.110167596E0,-4.457784653E0,-8.545417786E-1,8.657754898E0
2.112670367E0,-4.102734566E0,-5.045909882E-1,8.083854675E0
2.115173136E0,-3.683784246E0,-2.485418320E-1,7.431805134E0
2.117675906E0,-3.209784269E0,1.734085083E-1,6.674755096E0
2.120178675E0,-2.725734472E0,3.765087128E-1,5.690754890E0
2.122681367E0,-2.138784170E0,4.264583588E-1,4.504855156E0
2.125184134E0,-1.873240948E0,4.026050568E-1,3.293850422E0
2.127686876E0,-1.097930908E0,2.321081161E-1,1.822204351E0
2.130189645E0,-3.135111332E-1,-2.234935760E-2,1.081862450E-1
2.132692414E0,2.940278053E-1,-2.526922226E-1,-1.776648045E0
2.135195158E0,5.488023758E-1,-2.747879028E-1,-3.281177044E0
2.137697928E0,6.502282619E-1,-3.080577850E-1,-4.210629940E0
2.140200698E0,5.980186462E-1,-2.635440826E-1,-4.806083679E0
2.142703492E0,4.463300705E-1,-2.435455322E-1,-4.862610340E0
2.145206261E0,3.516364098E-2,-1.935949326E-1,-3.835199833E0
2.147709106E0,8.147239685E-3,-1.704320908E-1,-3.175120831E0
2.150211800E0,-1.427528858E-1,-1.365318298E-1,-2.176120758E0
2.152714644E0,-5.447528362E-1,-6.753253937E-2,-1.125220656E0
2.155217415E0,-7.988529205E-1,5.246734619E-2,-2.741205692E-1
2.157720108E0,-1.054752827E0,9.356784821E-2,5.858294964E-1
2.160222875E0,-1.433802605E0,2.845172882E-1,1.246879578E0
2.162725644E0,-1.507752895E0,4.385681152E-1,1.810879588E0
2.165228413E0,-1.356853008E0,6.005678177E-1,2.272879601E0
2.167731169E0,-1.402390242E0,7.272043228E-1,2.933354616E0
2.170233938E0,-1.144996643E0,8.274049759E-1,3.458544731E0
2.172736697E0,-1.153077126E0,9.370212555E-1,3.984034538E0
2.175239466E0,-1.268685818E0,1.143810272E0,4.457807064E0
2.177742230E0,-8.169746399E-1,1.270825386E0,4.890636921E0
2.180245000E0,-4.769246578E-1,1.320775509E0,5.266536713E0
2.182747846E0,-3.236248493E-1,1.442383766E0,5.782340050E0
2.185250569E0,3.618860245E-2,1.611238003E0,6.339017391E0
2.187753413E0,1.267352104E-1,1.792242527E0,6.876073360E0
2.190256083E0,1.295077801E-1,2.142455101E0,6.615965843E0
2.192758850E0,5.445576906E-1,2.087554932E0,6.914916039E0
2.195261619E0,1.413507700E0,2.020504951E0,6.821916103E0
2.197764388E0,2.595507860E0,1.838554859E0,6.438965797E0
2.200267158E0,3.563607693E0,1.556554794E0,6.177966118E0
2.202769927E0,4.427607536E0,1.397554398E0,5.676966190E0
2.205272696E0,5.029558182E0,1.366504669E0,4.912866116E0
2.207775465E0,5.927608013E0,1.144504547E0,4.256915569E0
2.210278235E0,6.256899834E0,1.006491661E0,3.688146114E0
2.212781005E0,6.485219955E0,9.060411453E-1,3.077378511E0
2.215283775E0,6.284238815E0,1.024493217E0,2.916388273E0
2.217786544E0,5.775469780E0,9.931221008E-1,2.269115925E0
2.220289313E0,5.024339199E0,1.185009956E0,1.676558018E0
2.222792082E0,4.331828117E0,1.438665390E0,1.372853756E0
2.225294851E0,3.327979326E0,1.655646324E0,1.146032929E0
2.227797620E0,2.085652590E0,1.932588100E0,9.447409511E-1
2.230300399E0,8.200427890E-1,2.232012749E0,1.069702029E0
2.232803168E0,-2.159041166E-1,2.411437511E0,1.428123951E0
2.235305937E0,-1.009535313E0,2.590676308E0,1.854416370E0
2.237808715E0,-1.602272153E0,2.756531715E0,2.028373957E0
2.240311484E0,-1.985372186E0,2.909531593E0,2.047423840E0
2.242814269E0,-2.180939913E0,2.987947464E0,1.992302656E0
2.245317039E0,-2.393939972E0,3.174847603E0,2.124302626E0
2.247819809E0,-2.588039875E0,3.380947590E0,2.452352762E0
2.250322578E0,-2.585939884E0,3.507847786E0,2.756252766E0
2.252825347E0,-2.522939920E0,3.614947796E0,3.003302813E0
2.255328116E0,-2.556990147E0,3.686947823E0,3.252302885E0
2.257830885E0,-2.568989754E0,3.859897614E0,3.446252823E0
2.260333654E0,-2.720039845E0,4.050847530E0,3.604352713E0
2.262836423E0,-3.140168667E0,4.288632393E0,3.965952635E0
2.265339192E0,-3.390044212E0,4.487075806E0,4.104231834E0
2.267841975E0,-3.636483192E0,4.678969860E0,4.075955868E0
2.270344744E0,-3.849821806E0,4.910866261E0,3.982856274E0
2.272847513E0,-4.040160179E0,5.125177383E0,3.919076443E0
2.275350298E0,-4.295327663E0,5.273860455E0,3.851086140E0
2.277853068E0,-4.685542107E0,5.433095932E0,3.705697298E0
2.280355828E0,-4.822114944E0,5.588044643E0,3.583518982E0
2.282858597E0,-4.815215111E0,5.708045006E0,3.535518885E0
2.285361366E0,-4.852341652E0,5.821736813E0,3.415478230E0
2.287864135E0,-4.866123199E0,5.887842655E0,3.338815212E0
2.290366904E0,-4.849162102E0,5.995559692E0,3.281236649E0
2.292869673E0,-4.935166359E0,6.101504326E0,3.343309402E0
2.295372442E0,-5.084071159E0,6.145803452E0,3.458141804E0
2.297875211E0,-5.235687256E0,6.243398666E0,3.419051409E0
2.300377980E0,-5.440419197E0,6.302196980E0,3.263001442E0
2.302880749E0,-5.673073769E0,6.357286453E0,3.045542240E0
2.305383519E0,-5.857584953E0,6.411973000E0,2.946824551E0
2.307886289E0,-6.102552414E0,6.491207123E0,2.897120476E0
2.310389059E0,-6.291552544E0,6.546257019E0,2.723120451E0
2.312891828E0,-6.373602867E0,6.579257011E0,2.612120390E0
2.315394597E0,-6.423552513E0,6.570257187E0,2.603120327E0
2.317897366E0,-6.375552177E0,6.622157097E0,2.670170307E0
2.320400135E0,-6.219552994E0,6.649157047E0,2.737220287E0
2.322902904E0,-6.128652573E0,6.697156906E0,2.761220455E0
2.325405673E0,-6.186552048E0,6.711256981E0,2.474120378E0
2.327908418E0,-6.226149559E0,6.734612465E0,2.202695131E0
2.330411187E0,-5.927712440E0,6.757745266E0,2.000265360E0
2.332913956E0,-5.732174397E0,6.749559402E0,1.714586973E0
2.335416739E0,-5.762734890E0,6.686614990E0,1.401945591E0
2.337919509E0,-5.836647034E0,6.685644150E0,1.218617678E0
2.340422279E0,-5.976751328E0,6.538408279E0,9.060816765E-1
2.342925049E0,-6.144263268E0,6.407668591E0,5.536647439E-1
2.345427818E0,-6.135263443E0,6.220618248E0,1.966646910E-1
2.347930587E0,-5.873867989E0,5.950847626E0,-1.846886873E-1
2.350433356E0,-5.421863556E0,5.585057735E0,-6.253765821E-1
2.352936125E0,-4.876884937E0,5.173475266E0,-1.010364771E0
2.355438909E0,-4.262677670E0,4.793902397E0,-1.416712046E0
2.357941678E0,-3.691134930E0,4.296383858E0,-1.760698795E0
2.360444447E0,-3.085570335E0,3.749568939E0,-1.958647490E0
2.362947216E0,-2.556520462E0,3.194569111E0,-2.384647608E0
2.365449985E0,-2.055520535E0,2.652618885E0,-2.782597780E0
2.367952754E0,-1.689520240E0,2.176669121E0,-3.381697416E0
2.370455524E0,-1.365520358E0,1.594669342E0,-4.336597443E0
2.372958294E0,-8.315201998E-1,9.616689682E-1,-5.369647980E0
2.375461064E0,-5.565701723E-1,4.156684875E-1,-6.300697327E0
2.377963833E0,1.023797989E-1,-2.953310013E-1,-7.213597298E0
2.380466597E0,4.874519110E-1,-1.032380104E0,-8.697965622E0
2.382969366E0,8.891159892E-1,-1.995908737E0,-9.755748749E0
2.385472135E0,1.621752143E0,-3.091638565E0,-1.055873489E1
2.387974904E0,2.388702154E0,-4.068738937E0,-1.109483433E1
2.390477673E0,3.169752121E0,-4.592688560E0,-1.085078430E1
2.392980422E0,4.186474800E0,-5.683891296E0,-1.010078335E1
2.395483191E0,5.455224514E0,-7.119264603E0,-8.825917244E0
2.397985951E0,5.822978497E0,-7.677560806E0,-7.445856094E0
2.400488721E0,6.253025055E0,-7.832592010E0,-5.726245880E0
2.402991491E0,7.186162472E0,-8.698890686E0,-4.037661552E0
2.405494261E0,7.610922813E0,-9.234650612E0,-2.487296104E0
2.407997044E0,7.010311604E0,-9.809597015E0,-1.734448433E0
2.410499813E0,6.105709553E0,-9.974808693E0,-1.670405984E0
2.413002573E0,4.477632999E0,-9.558067322E0,-1.948209405E0
2.415505342E0,2.575633049E0,-8.818117142E0,-2.374209404E0
2.418008111E0,1.065582871E0,-8.040067673E0,-2.750259399E0
2.420510880E0,2.225828171E-1,-7.285118103E0,-3.124209404E0
2.423013649E0,-2.784171104E-1,-6.557167053E0,-3.459309101E0
2.425516418E0,-5.053671598E-1,-5.872117996E0,-3.871209145E0
2.428019187E0,-3.954172134E-1,-5.149117470E0,-4.429209232E0
2.430521956E0,-1.104171276E-1,-4.430168152E0,-4.910259247E0
2.433024726E0,2.546099424E-1,-3.626926422E0,-5.433700562E0
2.435527496E0,6.913490295E-1,-2.914196014E0,-5.656297684E0
2.438030266E0,1.035332203E0,-2.333627701E0,-5.730531693E0
2.440533010E0,1.228245139E0,-1.867678642E0,-5.688814640E0
2.443035779E0,1.360770226E0,-1.409814835E0,-5.533654213E0
2.445538548E0,1.439820290E0,-1.029714584E0,-5.296654224E0
2.448041322E0,1.612403750E0,-6.510782242E-1,-4.894103527E0
2.450544091E0,1.677353740E0,-3.110275269E-1,-4.482203484E0
2.453046889E0,1.668619752E0,-1.257324219E-2,-3.971874714E0
2.455549658E0,1.510633826E0,2.860002518E-1,-3.347610235E0
2.458052427E0,1.368562579E0,6.366519928E-1,-2.687306166E0
2.460555210E0,1.224995136E0,9.322957993E-1,-2.002022743E0
2.463057979E0,1.028045177E0,1.258396149E0,-1.471022964E0
2.465560749E0,6.789951324E-1,1.488346100E0,-1.210022807E0
2.468063519E0,5.019482374E-1,1.732080460E0,-8.567783833E-1
2.470566289E0,2.410622835E-1,1.954813480E0,-5.085542202E-1
2.473069058E0,3.044164181E-2,2.083578110E0,-2.008613348E-1
2.475571837E0,-3.312510252E-1,2.153443813E0,2.132335901E-1
2.478074606E0,-5.642862320E-1,2.222106457E0,5.136955976E-1
2.480577375E0,-8.353364468E-1,2.253156662E0,8.567456007E-1
2.483080220E0,-1.227761745E0,2.140890121E0,1.134234071E0
2.485582867E0,-1.550634623E0,2.017543793E0,1.205332279E0
2.488085711E0,-1.717748404E0,1.810689449E0,1.325293303E0
2.490588482E0,-2.041748285E0,1.460589409E0,1.583293200E0
2.493091251E0,-2.364848137E0,1.249689102E0,1.605343342E0
2.495594020E0,-2.570798397E0,9.265890121E-1,1.602343321E0
2.498096790E0,-2.766848564E0,6.586894989E-1,1.694293261E0
2.500599559E0,-2.996798515E0,4.186887741E-1,1.737343311E0
2.503102328E0,-2.984798431E0,6.963920593E-2,1.780243278E0
2.505605097E0,-3.073748589E0,-2.903604507E-1,1.660243273E0
2.508107780E0,-3.295024872E0,-6.427965164E-1,1.431260109E0
2.510610547E0,-3.504330158E0,-1.021733284E0,1.322424531E0
2.513113316E0,-3.726711035E0,-1.402596474E0,1.116122484E0
2.515616076E0,-4.053527355E0,-1.843725204E0,8.631813526E-1
2.518118846E0,-4.226439476E0,-2.009405136E0,5.954167843E-1
2.520621571E0,-4.311397076E0,-2.140643120E0,5.807760954E-1
2.523124340E0,-4.011631489E0,-2.082392693E0,6.153817773E-1
2.525627186E0,-4.170968056E0,-2.108007431E0,7.680413723E-1
2.528129881E0,-4.643513680E0,-2.419393539E0,1.065899253E0
2.530632730E0,-5.055793762E0,-2.363676071E0,1.649033785E0
2.533135501E0,-5.527212143E0,-2.187827110E0,2.560711861E0
2.535638275E0,-6.177561760E0,-1.934370041E0,3.418455839E0
2.538141044E0,-6.659674168E0,-1.683966637E0,3.327145576E0
2.540643814E0,-7.012233257E0,-1.734120369E0,3.153526783E0
2.543146583E0,-6.966748714E0,-1.814857483E0,3.032610893E0
2.545649352E0,-7.282798290E0,-1.690807343E0,2.874660969E0
2.548152121E0,-7.876798153E0,-1.603807449E0,2.716561079E0
2.550654890E0,-8.134798050E0,-1.505857468E0,2.513610840E0
2.553157659E0,-7.974748135E0,-1.405807495E0,2.072610855E0
2.555660428E0,-7.679698467E0,-1.498807907E0,1.535610914E0
2.558163197E0,-7.708798885E0,-1.680757523E0,1.490610838E0
2.560665966E0,-7.857748508E0,-1.833757401E0,2.726610899E0
2.563168735E0,-7.484539032E0,-1.711396217E0,3.448210955E0
2.565671518E0,-6.924654484E0,-1.557753563E0,3.857323647E0
2.568174287E0,-6.417818069E0,-1.471111298E0,4.002036572E0
2.570677057E0,-5.982757092E0,-1.228289604E0,3.694023132E0
2.573179808E0,-5.621984482E0,-1.039873123E0,3.117617130E0
2.575682578E0,-5.475843906E0,-8.388938904E-1,2.460370779E0
2.578185347E0,-5.433026314E0,-4.144735336E-1,1.769481659E0
2.580688126E0,-5.597553253E0,2.133893967E-1,1.176908970E0
2.583190895E0,-5.800013065E0,8.428611755E-1,6.192245483E-1
2.585693664E0,-6.020753860E0,1.429300308E0,3.347925544E-1
2.588196433E0,-6.305603027E0,1.969276428E0,1.529543698E-1
2.590699207E0,-6.420889854E0,2.354781628E0,9.819418192E-2
2.593201976E0,-6.810890198E0,2.692731857E0,1.431941986E-1
2.595704745E0,-7.062890053E0,2.730681896E0,2.891441882E-1
2.598207514E0,-7.335890770E0,2.842731953E0,7.001442313E-1
2.600710283E0,-7.457839966E0,3.005781651E0,1.136194229E0
2.603213053E0,-7.308890343E0,2.965731621E0,1.666144371E0
2.605715823E0,-6.925790787E0,3.024682045E0,2.209144354E0
2.608218593E0,-6.207890511E0,3.123682022E0,2.719144344E0
2.610721362E0,-5.348953724E0,3.200483322E0,2.941250324E0
2.613224131E0,-4.465303421E0,3.251887321E0,3.228893518E0
2.615726880E0,-3.754504204E0,3.344861984E0,3.552454948E0
2.618229649E0,-3.176758766E0,3.455149651E0,3.811371326E0
2.620732389E0,-2.821078062E0,3.500979424E0,3.917317629E0
2.623235158E0,-2.495228291E0,3.540000439E0,4.016818523E0
2.625737927E0,-2.172798872E0,3.577120304E0,4.033908844E0
2.628240696E0,-1.896712065E0,3.594601154E0,4.071580410E0
2.630743465E0,-1.595815659E0,3.489714622E0,4.034074306E0
2.633246239E0,-1.436769009E0,3.431055069E0,3.987948179E0
2.635749009E0,-1.393803596E0,3.265838146E0,3.895139933E0
2.638251794E0,-1.256773949E0,3.093540668E0,3.776878595E0
2.640754564E0,-9.923927784E-1,2.810955048E0,3.831475735E0
2.643257318E0,-9.347045422E-1,2.486827850E0,3.668622255E0
2.645760316E0,-1.023804665E0,2.119777679E0,3.570522308E0
2.648262857E0,-9.707045555E-1,1.672777653E0,3.278622389E0
2.650765855E0,-9.758045673E-1,1.255777359E0,3.098622322E0
2.653268395E0,-1.045704603E0,6.977777481E-1,3.024522305E0
2.655771393E0,-1.088754654E0,1.967773438E-1,2.959572315E0
2.658274165E0,-1.073754549E0,-3.082723618E-1,2.899572372E0
2.660776934E0,-1.069704533E0,-8.232221603E-1,2.868522406E0
2.663279703E0,-7.972772121E-1,-1.384057999E0,2.985138655E0
2.665782472E0,-8.161563873E-1,-1.803184509E0,3.221475601E0
2.668285242E0,-7.382709980E-1,-2.230714798E0,3.475133657E0
2.670788045E0,-5.398058891E-1,-2.626325607E0,3.563531637E0
2.673290814E0,-3.530728817E-1,-3.081694603E0,3.936021328E0
2.675793583E0,2.502145767E-1,-3.377813339E0,4.698939800E0
2.678296352E0,8.527266979E-1,-3.538518906E0,5.313042641E0
2.680799121E0,1.330826044E0,-3.685587883E0,5.726068497E0
2.683301890E0,1.564183712E0,-3.771115303E0,6.109424591E0
2.685804659E0,1.614133716E0,-3.668214798E0,6.576374531E0
2.688307423E0,1.843196273E0,-3.566637993E0,7.086472511E0
2.690810192E0,1.944623113E0,-3.293128014E0,7.642181873E0
2.693312961E0,1.999517441E0,-2.838934898E0,8.131063461E0
2.695815749E0,2.483655691E0,-2.828446388E0,8.305267334E0
2.698318518E0,2.640599966E0,-2.729493141E0,8.183677673E0
2.700821288E0,2.329567432E0,-2.494261742E0,8.165161133E0
2.703324058E0,2.222617388E0,-2.194262505E0,8.287261009E0
2.705826828E0,2.808205128E0,-1.900435448E0,7.945790291E0
2.708329622E0,3.475138187E0,-1.770913124E0,7.488857746E0
2.710832391E0,3.795295715E0,-1.691231728E0,7.018099308E0
2.713335170E0,3.594293833E0,-1.486095428E0,6.422865868E0
2.715837939E0,3.327293873E0,-1.270995140E0,5.864865780E0
2.718340708E0,3.226343870E0,-1.198995590E0,5.256915569E0
2.720843477E0,3.339293957E0,-1.174995422E0,4.765815735E0
2.723346246E0,3.479243994E0,-1.290045738E0,4.550865650E0
2.725849015E0,3.774293900E0,-1.294095993E0,4.621815681E0
2.728351784E0,3.915293932E0,-1.227046013E0,4.609815598E0
2.730854553E0,3.886343956E0,-1.099995613E0,4.619865894E0
2.733357323E0,4.053561211E0,-1.030246735E0,4.103517532E0
2.735860093E0,4.205904007E0,-9.682712555E-1,4.077893257E0
2.738362863E0,4.228559494E0,-8.881196976E-1,3.805816174E0
2.740865707E0,3.999700069E0,-6.452198029E-1,3.399822235E0
2.743368392E0,3.849476814E0,-4.719448090E-1,3.202793121E0
2.745871236E0,3.753595591E0,-5.391750336E-1,2.966770649E0
2.748373930E0,3.484998941E0,-4.254684448E-1,2.794733524E0
2.750876774E0,3.299923658E0,-4.406366348E-1,2.213486671E0
2.753379541E0,3.152628183E0,-4.392290115E-1,1.491795540E0
2.755882310E0,2.961794376E0,-2.698802948E-1,8.800326586E-1
2.758385084E0,2.570150137E0,-2.079257965E-1,5.822072029E-1
2.760887853E0,2.223200083E0,-4.487514496E-2,5.963070393E-1
2.763390622E0,2.264150143E0,6.507492065E-2,6.182072163E-1
2.765893391E0,2.297150135E0,-4.292583466E-2,2.513070107E-1
2.768396160E0,2.228150129E0,-2.419757843E-1,-1.847429276E-1
2.770898929E0,2.415200233E0,-2.968750000E-1,-7.307429314E-1
2.773401698E0,2.676200151E0,-1.339750290E-1,-1.328793049E0
2.775904467E0,2.642150164E0,-2.597522736E-2,-1.894742966E0
2.778407236E0,2.155175447E0,-9.699821472E-2,-3.071166992E0
2.780910005E0,1.763933420E0,-2.047319412E-1,-3.367892504E0
2.783412793E0,1.167445779E0,-3.610439301E-1,-3.765093088E0
2.785915563E0,5.163495541E-1,-4.813718796E-1,-4.170306206E0
2.788418333E0,5.372405052E-2,-3.711862564E-1,-4.735024452E0
2.790921103E0,1.072125435E-1,-4.015789032E-1,-5.138434410E0
2.793423896E0,7.356643677E-2,-3.954753876E-1,-5.672707081E0
2.795926665E0,-1.860382557E-1,-2.218618393E-1,-6.389532566E0
2.798429439E0,-2.527692318E-1,-2.039489746E-1,-7.237249374E0
2.800932208E0,2.116630077E-1,-1.372232437E-1,-7.829004765E0
2.803434977E0,3.445918560E-1,-3.008213043E-1,-8.536600113E0
2.805937746E0,3.012099266E-1,-3.497056961E-1,-9.038267136E0
2.808440501E0,1.953825951E-1,-2.125940323E-1,-9.364000320E0
2.810943270E0,1.489973068E-2,-1.262016296E-1,-9.715409279E0
2.813446034E0,-2.038464546E-1,-2.099418640E-2,-9.819111824E0
2.815949034E0,-4.427943230E-1,1.999845505E-1,-9.641761780E0
2.818451575E0,-6.118874550E-1,4.197511673E-1,-9.436355591E0
2.820954573E0,-7.168874741E-1,4.848508835E-1,-9.594305992E0
2.823457113E0,-9.009375572E-1,4.968509674E-1,-9.587406158E0
2.825960111E0,-1.003837585E0,3.938007355E-1,-9.283355713E0
2.828462882E0,-1.229887486E0,2.208509445E-1,-9.092406273E0
2.830965652E0,-1.291837215E0,-4.149436951E-3,-8.840405464E0
2.833468421E0,-1.226887226E0,-3.371496201E-1,-8.272356033E0
2.835971190E0,-1.150837421E0,-5.331993103E-1,-7.779305458E0
2.838473992E0,-1.061568022E0,-6.610851288E-1,-7.457686424E0
2.840976762E0,-1.135143042E0,-6.228361130E-1,-6.954795361E0
2.843479531E0,-1.384416342E0,-6.153392792E-1,-6.260086060E0
2.845982300E0,-2.221132278E0,-6.815185547E-1,-5.608764648E0
2.848485069E0,-2.598190308E0,-6.553945541E-1,-5.041530609E0
2.850987838E0,-2.648373365E0,-5.186214447E-1,-4.608286858E0
2.853490622E0,-2.632573843E0,-3.635835648E-1,-4.010660172E0
2.855993391E0,-2.401936054E0,-2.834310532E-1,-3.161111832E0
2.858496169E0,-2.321069241E0,-1.813974380E-1,-2.496574402E0
2.860998938E0,-2.004474640E0,-6.542778015E-2,-2.016158104E0
2.863501707E0,-1.612845659E0,-3.936290741E-2,-1.367567897E0
2.866004548E0,-1.297272921E0,1.507091522E-2,-6.368291378E-1
2.868507242E0,-9.630677700E-1,7.521915436E-2,-8.498835564E-2
2.871010009E0,-8.600180149E-1,2.192192078E-1,5.829617977E-1
2.873512856E0,-6.710178852E-1,2.951192856E-1,1.040011644E0
2.876015550E0,-6.039679050E-1,4.421195984E-1,1.394911528E0
2.878518394E0,-7.500679493E-1,5.252189636E-1,1.760911703E0
2.881021165E0,-8.480179310E-1,5.711193085E-1,2.021911860E0
2.883523935E0,-9.110176563E-1,6.671190262E-1,2.079962015E0
2.886026704E0,-9.180676937E-1,6.572194099E-1,2.088961840E0
2.888529473E0,-9.035551548E-1,5.330286026E-1,1.849430561E0
2.891032228E0,-1.027090788E0,4.933414459E-1,1.630505085E0
2.893534997E0,-1.165969372E0,4.504036903E-1,1.494378805E0
2.896037766E0,-1.257418633E0,3.335351944E-1,1.259112358E0
2.898540530E0,-1.213568687E0,2.167081833E-1,9.730100632E-1
2.901043299E0,-1.238751411E0,1.811504364E-2,6.246635914E-1
2.903546096E0,-1.253549099E0,-1.611957550E-1,1.583521366E-1
2.906048865E0,-1.206617832E0,-4.371719360E-1,-2.661418915E-1
2.908551634E0,-1.172224998E0,-7.559680939E-1,-8.043475151E-1
2.911054393E0,-1.110258579E0,-9.912891388E-1,-1.310205579E0
2.913557162E0,-9.773287773E-1,-1.261256218E0,-1.843466759E0
2.916060162E0,-8.867235184E-1,-1.563524246E0,-2.408434153E0
2.918562934E0,-8.304276466E-1,-1.787385941E0,-2.954579353E0
2.921065472E0,-5.885486603E-1,-2.056675911E0,-3.496393204E0
2.923568239E0,-2.295989990E-1,-2.295625687E0,-3.848443270E0
2.926071009E0,1.168236732E-1,-2.600511551E0,-4.141392708E0
2.928573783E0,4.647531509E-1,-2.831244469E0,-4.425866604E0
2.931076783E0,8.118569851E-1,-3.083868027E0,-4.629038811E0
2.933579554E0,1.211906910E0,-3.337967873E0,-4.891988754E0
2.936082323E0,1.668807030E0,-3.620867729E0,-5.106038570E0
2.938585093E0,2.133806944E0,-3.910967827E0,-5.302088737E0
2.941087862E0,2.559807062E0,-4.197917938E0,-5.398088455E0
2.943590631E0,3.029906988E0,-4.470917702E0,-5.403038502E0
2.946093400E0,3.407907009E0,-4.753968239E0,-5.368988514E0
2.948596169E0,3.697857141E0,-4.949868202E0,-5.175038338E0
2.951098925E0,4.201515675E0,-5.308450699E0,-5.174139023E0
2.953601694E0,4.596836567E0,-5.453052521E0,-4.941707611E0
2.956104463E0,4.917233944E0,-5.549432755E0,-4.700873375E0
2.958607212E0,4.929985046E0,-5.399981499E0,-4.346086502E0
2.961109981E0,4.867934704E0,-5.156251431E0,-3.860834122E0
2.963612745E0,5.322990417E0,-5.424313068E0,-3.735551357E0
2.966115514E0,5.770631790E0,-5.614166260E0,-3.613791466E0
2.968618283E0,6.228581905E0,-5.782166481E0,-3.531891346E0
2.971121053E0,6.512800217E0,-5.831690788E0,-3.395073414E0
2.973623838E0,6.703013420E0,-5.831666470E0,-3.183402538E0
2.976126608E0,6.799036026E0,-5.692546368E0,-3.079963684E0
2.978629377E0,6.868926525E0,-5.633131504E0,-2.985619783E0
2.981132146E0,6.925571442E0,-5.572771072E0,-2.893494129E0
2.983635001E0,6.911040306E0,-5.513343334E0,-2.800190210E0
2.986137695E0,6.961148262E0,-5.508799076E0,-2.789435863E0
2.988640505E0,6.921329498E0,-5.507418156E0,-2.829328299E0
2.991143276E0,6.898450375E0,-5.405127048E0,-2.767282963E0
2.993646046E0,6.783400536E0,-5.405127048E0,-2.750333071E0
2.996148815E0,6.783400536E0,-5.532176495E0,-2.810333014E0
2.998651584E0,6.810400009E0,-5.551227093E0,-2.819333076E0
3.001154353E0,6.767350197E0,-5.468126774E0,-2.798333168E0
3.003657122E0,6.688450336E0,-5.484177113E0,-2.788283110E0
3.006159891E0,6.609400272E0,-5.432126522E0,-2.781383038E0
3.008662660E0,6.566350460E0,-5.391176701E0,-2.755283117E0
3.011165429E0,6.676588535E0,-5.453687191E0,-2.627122879E0
3.013668203E0,6.697020531E0,-5.463919640E0,-2.559035540E0
3.016170972E0,6.628509521E0,-5.477023125E0,-2.522531748E0
3.018673952E0,6.569927692E0,-5.391076088E0,-2.455551624E0
3.021176492E0,6.516221523E0,-5.481361866E0,-2.496092796E0
3.023679490E0,6.389783859E0,-5.588121414E0,-2.609228849E0
3.026182022E0,6.298513412E0,-5.629907608E0,-2.659874201E0
3.028685020E0,6.185990334E0,-5.645010471E0,-2.698856831E0
3.031187791E0,5.963767052E0,-5.703216553E0,-2.918223858E0
3.033690348E0,5.790150166E0,-5.795576572E0,-3.148802519E0
3.036193346E0,5.675609112E0,-6.121293545E0,-3.362808466E0
3.038696093E0,5.625287056E0,-6.569575310E0,-3.641291857E0
3.041198862E0,5.498237133E0,-6.943525314E0,-4.046291828E0
3.043701631E0,5.380187035E0,-7.259574890E0,-4.676291943E0
3.046204400E0,5.241287231E0,-7.417525291E0,-5.339292049E0
3.048707170E0,5.174237251E0,-7.413475037E0,-6.132191658E0
3.051209939E0,5.091287136E0,-7.389474869E0,-7.032192230E0
3.053712708E0,5.009237289E0,-7.384525299E0,-7.969242096E0
3.056215477E0,4.952237129E0,-7.369524956E0,-8.848241806E0
3.058718246E0,4.687527657E0,-7.263967514E0,-9.447542191E0
3.061221015E0,4.617476463E0,-7.325911522E0,-1.012986660E1
3.063723770E0,4.550537586E0,-7.332390785E0,-1.079613209E1
3.066226615E0,4.444808006E0,-7.355174065E0,-1.147791958E1
3.068729310E0,4.104987144E0,-7.347445488E0,-1.191082764E1
3.071232130E0,3.772168636E0,-7.286704063E0,-1.205521584E1
3.073734901E0,3.541724682E0,-7.215582848E0,-1.191292477E1
3.076237660E0,3.399054527E0,-7.161430359E0,-1.172073650E1
3.078740429E0,3.182666779E0,-7.036723137E0,-1.134243965E1
3.081243199E0,2.884954929E0,-6.939492226E0,-1.100986099E1
3.083745968E0,2.546573162E0,-6.796169281E0,-1.062490654E1
3.086248742E0,2.452754498E0,-6.791716576E0,-1.000332737E1
3.088751511E0,2.421704531E0,-6.758716583E0,-9.239377022E0
3.091254280E0,2.143754482E0,-6.652666092E0,-8.451277733E0
3.093757049E0,1.784804344E0,-6.506716728E0,-7.608277321E0
3.096259818E0,1.470704317E0,-6.413716316E0,-6.827377319E0
3.098762587E0,1.262804508E0,-6.157666206E0,-6.156277657E0
3.101265356E0,1.183754444E0,-5.841616631E0,-5.598277092E0
3.103768125E0,9.967043400E-1,-5.563666344E0,-5.254327297E0
3.106270894E0,6.282916069E-1,-5.267524719E0,-4.000129700E0
3.108773894E0,5.177805424E-1,-5.150431633E0,-3.094018459E0
3.111276395E0,5.511181355E-1,-4.929960251E0,-2.456205130E0
3.113779388E0,6.063745022E-1,-4.774456978E0,-1.862377644E0
3.116282160E0,6.894745827E-1,-4.540457726E0,-1.549327612E0
3.118784929E0,5.473501682E-1,-4.252348900E0,-1.270871520E0
3.121287698E0,2.609913349E-1,-3.923293114E0,-6.863120198E-1
3.123790477E0,2.944097519E-1,-3.695262909E0,2.676628828E-1
3.126293247E0,3.476109505E-1,-3.500623703E0,1.113713503E0
3.128796021E0,4.114749432E-1,-3.233738899E0,2.009391546E0
3.131298790E0,8.170111179E-1,-3.146774292E0,2.783651829E0
3.133801559E0,1.114011049E0,-3.131774902E0,3.360701561E0
3.136304328E0,1.126011133E0,-3.199725151E0,4.033751965E0
3.138807097E0,1.148061037E0,-3.103724480E0,4.865651608E0
3.141309866E0,5.300610065E-1,-3.146774292E0,5.794751644E0
3.143812635E0,-1.809389591E-1,-3.098774910E0,6.924701691E0
3.146315404E0,-8.469388485E-1,-3.076725006E0,7.516752243E0
3.148818173E0,-1.254039049E0,-3.551774979E0,8.335751534E0
3.151320942E0,-2.161346436E0,-3.448700905E0,9.590971947E0
3.153823711E0,-2.949942827E0,-3.569561005E0,9.701664925E0
3.156326480E0,-4.069322586E0,-4.111070633E0,9.814673424E0
3.158829250E0,-5.195970535E0,-4.449719429E0,9.999725342E0
3.161332081E0,-6.172741890E0,-4.784570694E0,1.000974846E1
3.163834775E0,-6.920784950E0,-5.239555359E0,9.976659775E0
3.166337624E0,-7.438935757E0,-5.646628380E0,9.914033890E0
3.168840396E0,-7.989599228E0,-5.996802330E0,1.019778156E1
3.171343165E0,-9.033180237E0,-5.584891319E0,1.082507896E1
3.173845934E0,-9.906866074E0,-4.905725479E0,1.152146626E1
3.176348703E0,-9.611364365E0,-5.178859711E0,1.126270294E1
3.178851473E0,-9.856860161E0,-5.400674820E0,1.093110657E1
3.181354242E0,-1.013118839E1,-5.606765747E0,1.054090023E1
3.183857011E0,-9.598498344E0,-6.133915901E0,1.016324711E1
3.186359780E0,-7.919548035E0,-6.128965378E0,9.724197388E0
3.188862549E0,-3.819447756E0,-5.268865585E0,8.367297173E0
3.191365318E0,-6.283497810E0,-4.967965126E0,8.007297516E0
3.193868087E0,-8.700448036E0,-4.768915176E0,7.248297215E0
3.196370856E0,-1.048949814E1,-4.284865379E0,6.242247105E0
3.198873625E0,-1.132544804E1,-3.546865463E0,4.903197289E0
3.201376394E0,-1.147349834E1,-2.754865646E0,3.153296947E0
3.203879389E0,-1.209332657E1,-2.020388603E0,1.359318972E0
3.206382160E0,-1.187476349E1,-1.554924965E0,-1.173424721E0
3.208884915E0,-1.089543438E1,-1.163448334E0,-4.472366333E0
3.211387684E0,-9.915449142E0,-7.513437271E-1,-7.922369957E0
3.213890468E0,-8.784009933E0,-4.867591858E-1,-1.097288704E1
3.216393237E0,-7.676722527E0,-2.381477356E-1,-1.233582306E1
3.218896006E0,-7.231527328E0,-1.113567352E-1,-1.090683174E1
3.221398804E0,-6.627371788E0,9.197521210E-2,-9.386484146E0
3.223901573E0,-6.183075905E0,2.879743576E-1,-8.013153076E0
3.226404342E0,-5.666176796E0,4.480247498E-1,-6.760202885E0
3.228907111E0,-5.414176941E0,7.120246887E-1,-5.345252991E0
3.231409956E0,-5.067076683E0,9.529247284E-1,-4.006202698E0
3.233912727E0,-5.321176529E0,7.469739914E-1,-2.480252743E0
3.236415497E0,-4.995076180E0,6.679239273E-1,-1.381202817E0
3.238918266E0,-4.188076019E0,1.669924259E0,-7.012526989E-1
3.241421035E0,-4.245076180E0,1.934974670E0,1.057473123E-1
3.243923804E0,-4.536622047E0,2.089348316E0,1.370013714E0
3.246426573E0,-4.303839684E0,2.272544861E0,2.191171646E0
3.248929337E0,-4.036677361E0,2.392256737E0,2.774746895E0
3.251432106E0,-3.884585857E0,2.500291824E0,3.376635313E0
3.253934885E0,-3.792077065E0,2.551976204E0,3.819108248E0
3.256437654E0,-4.014838219E0,2.345726967E0,4.157932281E0
3.258940456E0,-3.617672205E0,2.696800709E0,4.192567825E0
3.261443456E0,-2.817262650E0,3.287423134E0,4.191665649E0
3.263946227E0,-2.544262409E0,3.222473145E0,4.346765995E0
3.266448996E0,-2.305312634E0,3.354473114E0,4.504715919E0
3.268951766E0,-2.113312721E0,3.564473152E0,4.473666191E0
3.271454535E0,-1.823212624E0,3.677423000E0,4.595766068E0
3.273957304E0,-1.687312603E0,3.828473091E0,4.564715862E0
3.276460073E0,-1.663312435E0,3.962423325E0,4.844766140E0
3.278962842E0,-1.538212776E0,4.024523258E0,5.357766151E0
3.281465611E0,-8.939836025E-1,3.855310440E0,6.014591694E0
3.283968385E0,-5.451016426E-1,3.886481285E0,6.432424545E0
3.286471154E0,-6.065089703E-1,4.114305973E0,6.689876556E0
3.288973999E0,-7.981009483E-1,4.378095150E0,6.748903275E0
3.291476684E0,-7.060315609E-1,4.533485889E0,6.981517792E0
3.293979528E0,-2.121582031E-1,4.646143913E0,7.489005089E0
3.296482222E0,8.457919359E-1,4.512194157E0,7.920104980E0
3.298985076E0,2.741326809E0,3.944811821E0,7.719504356E0
3.301487848E0,4.558298588E0,3.248878002E0,6.758975029E0
3.303990617E0,6.078217983E0,2.847643375E0,5.983813763E0
3.306493386E0,7.220736027E0,2.407098770E0,5.471426010E0
3.308996155E0,7.539168358E0,2.110069752E0,3.986757040E0
3.311498924E0,7.637767315E0,2.006169319E0,2.811682463E0
3.314001707E0,7.415463448E0,1.815208435E0,2.056176186E0
3.316504476E0,6.943187237E0,1.711533546E0,1.632389784E0
3.319007245E0,6.270586014E0,1.753759384E0,1.208345413E0
3.321510014E0,5.276686192E0,1.889809132E0,1.086245418E0
3.324013013E0,3.959686041E0,2.174809456E0,1.206245422E0
3.326515554E0,2.385586023E0,2.557759285E0,1.543295383E0
3.329018552E0,8.825859427E-1,2.905759335E0,1.943345428E0
3.331521323E0,-3.003141880E-1,3.269809246E0,2.468345404E0
3.334024092E0,-9.903142452E-1,3.609859467E0,2.818295479E0
3.336526862E0,-1.433414221E0,3.877759457E0,2.942345619E0
3.339029641E0,-1.966967940E0,4.186399460E0,3.269525766E0
3.341532410E0,-2.118064880E0,4.391814709E0,3.547664642E0
3.344035188E0,-2.082954407E0,4.430730820E0,3.743613005E0
3.346537957E0,-2.453904390E0,4.787731171E0,4.042563438E0
3.349040726E0,-2.888097525E0,5.212981701E0,4.418311119E0
3.351543495E0,-3.112263680E0,5.602913857E0,4.676084518E0
3.354046269E0,-3.325518131E0,5.869718552E0,4.937548161E0
3.356549038E0,-3.434773922E0,6.105010986E0,5.003104687E0
3.359051817E0,-3.572416782E0,6.371230602E0,5.076172829E0
3.361554586E0,-3.714574814E0,6.617554665E0,5.100648403E0
3.364057355E0,-3.825150967E0,6.912982941E0,5.079530716E0
3.366560206E0,-3.964103699E0,7.138407707E0,4.974024773E0
3.369062978E0,-4.068734169E0,7.323734760E0,4.755999088E0
3.371565747E0,-4.090784073E0,7.524734497E0,4.652949333E0
3.374068516E0,-4.068734169E0,7.747634888E0,4.458999157E0
3.376571285E0,-4.080734253E0,7.895684719E0,4.379949093E0
3.379074055E0,-4.384784222E0,8.027685165E0,4.317998886E0
3.381576824E0,-4.789783955E0,8.168684959E0,4.331949234E0
3.384079593E0,-5.249684334E0,8.290635109E0,4.233999252E0
3.386582362E0,-5.728784084E0,8.319734573E0,4.142949104E0
3.389085380E0,-6.182686806E0,8.396288872E0,4.105140209E0
3.391588152E0,-6.421536446E0,8.401950836E0,4.041754246E0
3.394090921E0,-6.587154865E0,8.443206787E0,4.030571938E0
3.396593666E0,-6.919510841E0,8.526823044E0,3.991283655E0
3.399096435E0,-7.110640049E0,8.525873184E0,3.990217686E0
3.401599204E0,-7.144474030E0,8.538795471E0,3.840893269E0
3.404101974E0,-7.327802181E0,8.536762238E0,3.603046417E0
3.406604748E0,-7.445799828E0,8.617857933E0,3.412925243E0
3.409107517E0,-7.315991402E0,8.666302681E0,3.219766378E0
3.411610341E0,-7.018988609E0,8.605481148E0,3.061942101E0
3.414113113E0,-6.814989090E0,8.514581680E0,2.835892200E0
3.416615882E0,-6.424988747E0,8.461481094E0,2.819992304E0
3.419118651E0,-6.323888779E0,8.454581261E0,2.895892382E0
3.421621420E0,-6.615939140E0,8.428481102E0,2.426992178E0
3.424124190E0,-6.790988922E0,8.329481125E0,2.093992233E0
3.426626959E0,-6.939938545E0,8.238581657E0,1.830892205E0
3.429129728E0,-7.068939209E0,8.181581497E0,1.597942114E0
3.431632497E0,-6.993332386E0,8.004437447E0,1.075691223E0
3.434135252E0,-6.768893719E0,7.789714813E0,6.443536282E-1
3.436638021E0,-6.497545242E0,7.497632027E0,2.247057557E-1
3.439141020E0,-6.271430969E0,7.084137917E0,-2.884040475E-1
3.441643569E0,-6.139549732E0,6.683781624E0,-8.808712959E-1
3.444146567E0,-5.995042324E0,6.190937042E0,-1.436555982E0
3.446649338E0,-5.655546665E0,5.612654209E0,-2.080413818E0
3.449151892E0,-5.196031094E0,4.905886650E0,-2.571902275E0
3.451654890E0,-4.395105839E0,4.139860630E0,-3.104386806E0
3.454157661E0,-3.744105816E0,3.483910561E0,-3.892486811E0
3.456660430E0,-3.097005844E0,2.735860348E0,-4.702486992E0
3.459163200E0,-2.225055695E0,1.888960361E0,-6.053387165E0
3.461665969E0,-1.416105866E0,1.049860001E0,-7.411487579E0
3.464168738E0,-8.240557909E-1,2.499103546E-1,-9.011387825E0
3.466671507E0,-4.981056452E-1,-6.451396942E-1,-1.138243771E1
3.469174276E0,6.889426708E-2,-1.898089409E0,-1.365043736E1
3.471677045E0,9.883266687E-1,-3.267317772E0,-1.609224319E1
3.474179890E0,1.811447263E0,-4.493477821E0,-1.828015900E1
3.476682642E0,3.093395948E0,-6.573953629E0,-1.986549377E1
3.479185411E0,5.488232613E0,-8.192267418E0,-1.965531921E1
3.481688181E0,8.054992676E0,-9.771142006E0,-1.803302383E1
3.484190945E0,1.004063988E1,-1.182855606E1,-1.539126301E1
3.486693714E0,1.214615631E1,-1.368497276E1,-1.184010792E1
3.489196483E0,1.385838318E1,-1.529520798E1,-7.629099369E0
3.491699252E0,1.446569443E1,-1.656687546E1,-4.187944412E0
3.494202021E0,1.432070255E1,-1.738979530E1,-1.812897086E0
3.496705020E0,1.334060192E1,-1.773884583E1,-7.727971077E-1
3.499207791E0,1.149665165E1,-1.770284653E1,-8.758471012E-1
3.501710560E0,9.201651573E0,-1.670684624E1,-1.970847249E0
3.504213330E0,7.257651329E0,-1.542284584E1,-3.282896996E0
3.506716099E0,5.587701321E0,-1.417274475E1,-4.715847015E0
3.509218868E0,4.347651482E0,-1.300379562E1,-5.857797146E0
3.511721637E0,3.233601332E0,-1.178984451E1,-6.654897213E0
3.514224382E0,2.336146355E0,-1.023367214E1,-7.419270992E0
3.516727151E0,1.840779781E0,-8.748634338E0,-8.019375801E0
3.519229929E0,1.514602900E0,-7.293701172E0,-8.615504265E0
3.521732698E0,1.495077848E0,-5.685685158E0,-8.970779419E0
3.524235543E0,1.459112287E0,-4.067114830E0,-8.978482246E0
3.526738238E0,1.585017204E0,-2.727279663E0,-8.781811714E0
3.529241082E0,1.883802414E0,-1.662286758E0,-8.407042503E0
3.531743853E0,2.186999083E0,-8.215894699E-1,-7.909664154E0
3.534246613E0,2.454208136E0,-2.094898224E-1,-7.200016975E0
3.536749383E0,2.574884653E0,2.755699158E-1,-6.319745541E0
3.539252152E0,2.494329929E0,7.091388702E-1,-5.299982548E0
3.541754925E0,2.480847120E0,1.130821228E0,-4.290497780E0
3.544257694E0,2.352359772E0,1.493548393E0,-3.254579067E0
3.546760463E0,2.036309719E0,1.797597885E0,-2.183578968E0
3.549263232E0,1.424309611E0,2.182497978E0,-1.295578837E0
3.551766231E0,8.562595844E-1,2.465548038E0,-5.406287909E-1
3.554269002E0,6.053096056E-1,2.396548271E0,1.463712454E-1
3.556771771E0,-2.216403484E-1,2.609548092E0,6.604212523E-1
3.559274540E0,-9.827404022E-1,2.582548141E0,1.077421308E0
3.561777310E0,-1.366740465E0,2.204547882E0,1.230421305E0
3.564280075E0,-1.789100170E0,1.826258183E0,1.128441691E0
3.566782919E0,-2.550754070E0,1.527491570E0,1.038101435E0
3.569285613E0,-2.905668259E0,8.858957291E-1,7.625007629E-1
3.571788453E0,-3.195585489E0,2.259416580E-1,3.695582449E-1
3.574291147E0,-3.374761105E0,-5.302782059E-1,-5.404126644E-2
3.576794005E0,-3.469368935E0,-1.224997520E0,-4.940683842E-1
3.579296776E0,-3.501203775E0,-1.776065826E0,-9.746447802E-1
3.581799546E0,-3.766555548E0,-2.397977829E0,-1.719215035E0
3.584302315E0,-3.823186398E0,-3.035092354E0,-2.947849512E0
3.586805099E0,-3.947211027E0,-3.544817924E0,-4.348008156E0
3.589307868E0,-4.263750076E0,-3.855065346E0,-5.787907124E0
3.591810637E0,-4.701749802E0,-4.396115303E0,-7.224907398E0
3.594313406E0,-5.149799347E0,-4.923065186E0,-8.364907265E0
3.596816175E0,-5.703749657E0,-5.340065002E0,-8.726857185E0
3.599318944E0,-5.983799934E0,-5.304064751E0,-7.885807037E0
3.601821713E0,-6.184800148E0,-4.791065216E0,-6.470857143E0
3.604324712E0,-6.320699692E0,-4.106164932E0,-4.625857353E0
3.606827484E0,-6.756750107E0,-3.100114822E0,-2.163907051E0
3.609330252E0,-7.231372833E0,-2.177366257E0,-2.714426219E-1
3.611833021E0,-7.893440247E0,-1.767274857E0,1.222417474E0
3.614335790E0,-7.937600613E0,-1.080336571E0,2.662498951E0
3.616838560E0,-7.761578560E0,-3.423070908E-1,3.838769197E0
3.619341315E0,-7.527701378E0,5.455837250E-1,4.944014549E0
3.621844084E0,-7.467768192E0,1.517142296E0,6.239707947E0
3.624346928E0,-7.303377151E0,2.261455536E0,7.044917107E0
3.626849713E0,-7.047191620E0,2.746308327E0,7.268780231E0
3.629352483E0,-7.076212883E0,2.955817223E0,7.482440948E0
3.631855252E0,-6.967399597E0,3.036846638E0,7.701782703E0
3.634358026E0,-6.496593475E0,3.211746216E0,7.525446892E0
3.636860795E0,-6.243542671E0,3.438695908E0,7.372447014E0
3.639363564E0,-5.778543472E0,3.661746025E0,7.113397121E0
3.641866333E0,-5.273493290E0,3.802746296E0,6.910447121E0
3.644369102E0,-4.899543285E0,3.910746098E0,6.903397083E0
3.646871871E0,-4.544493198E0,3.965646267E0,6.970447063E0
3.649374640E0,-4.099593163E0,3.963696003E0,7.216446877E0
3.651877409E0,-3.764492989E0,3.920646191E0,7.554397106E0
3.654380409E0,-3.483471394E0,3.710639477E0,7.934357166E0
3.656882949E0,-3.359421253E0,3.509639740E0,8.040407181E0
3.659385966E0,-3.249535799E0,3.253002644E0,7.824484825E0
3.661888738E0,-3.311493874E0,2.905016422E0,7.421105385E0
3.664391507E0,-3.610258579E0,2.529438019E0,6.884824276E0
3.666894276E0,-3.935603619E0,2.077804089E0,6.270968437E0
3.669397045E0,-4.274074554E0,1.756709099E0,5.698585033E0
3.671899814E0,-4.553833485E0,1.350121498E0,5.184202671E0
3.674402594E0,-4.887680531E0,1.035947800E0,4.681056499E0
3.676905438E0,-5.139396191E0,8.963642120E-1,4.289062023E0
3.679408194E0,-5.487156868E0,7.227201462E-1,4.023087502E0
3.681910963E0,-5.506177902E0,6.138277054E-1,3.912592411E0
3.684413733E0,-5.310257912E0,5.024070740E-1,3.868787289E0
3.686916502E0,-5.309550285E0,5.453138351E-1,3.871676922E0
3.689419271E0,-5.008915901E0,6.758403778E-1,3.638064146E0
3.691922040E0,-4.720015526E0,7.928409576E-1,3.520014048E0
3.694424809E0,-4.462915421E0,8.858404160E-1,3.520014048E0
3.696927808E0,-3.994015455E0,1.000890732E0,3.602064133E0
3.699430348E0,-3.607915163E0,1.127941132E0,3.676014185E0
3.701933346E0,-3.401965380E0,1.242840767E0,3.724014044E0
3.704435886E0,-3.019015551E0,1.304941177E0,3.757014036E0
3.706938654E0,-2.551915407E0,1.312891006E0,3.736014128E0
3.709441674E0,-1.869679213E0,1.281803131E0,3.605655193E0
3.711944445E0,-1.446406841E0,1.255805016E0,3.615638018E0
3.714447145E0,-1.256248236E0,1.126203537E0,3.583365917E0
3.716949914E0,-1.044420004E0,1.038241386E0,3.574608088E0
3.719452675E0,-8.131945133E-1,9.175739288E-1,3.520553350E0
3.721955444E0,-5.535540581E-1,8.244352341E-1,3.535999775E0
3.724458288E0,-4.045717716E-1,6.183910370E-1,3.469499826E0
3.726961059E0,-3.209998608E-1,4.187917709E-1,3.387357235E0
3.729463828E0,-4.000015259E-1,1.301546097E-1,3.150653601E0
3.731966597E0,-4.570014477E-1,-3.178949356E-1,2.669753551E0
3.734469366E0,-4.910514355E-1,-7.488451004E-1,2.413703442E0
3.736972135E0,-6.490015984E-1,-9.858455658E-1,2.317703485E0
3.739474904E0,-5.341014862E-1,-1.383795738E0,2.274653435E0
3.741977673E0,-5.821015835E-1,-1.754895210E0,2.240753412E0
3.744480672E0,-5.341014862E-1,-2.195895195E0,2.226653337E0
3.746983212E0,-2.870514393E-1,-2.655795097E0,2.300753355E0
3.749486210E0,2.902607918E-1,-3.087343216E0,2.196596622E0
3.751988981E0,6.475257874E-1,-3.318594933E0,2.325165033E0
3.754491747E0,1.014116049E0,-3.462603569E0,2.669625998E0
3.756994516E0,1.297430038E0,-3.578506470E0,2.862316132E0
3.759497285E0,1.531643391E0,-3.747154236E0,3.060377121E0
3.762000054E0,1.714819908E0,-3.752527237E0,3.447445869E0
3.764502824E0,1.876946688E0,-3.788745880E0,3.800129652E0
3.767005602E0,2.043101788E0,-3.728904724E0,4.403572083E0
3.769508371E0,2.067531824E0,-3.522307396E0,4.859125137E0
3.772011215E0,2.251581669E0,-3.446257591E0,5.183125496E0
3.774513987E0,2.563581944E0,-3.364207268E0,5.398075581E0
3.777016756E0,2.819631815E0,-3.218257904E0,5.554075241E0
3.779519525E0,3.066531897E0,-3.005257607E0,5.595175266E0
3.782022294E0,3.308631897E0,-2.799307823E0,5.468125343E0
3.784525063E0,3.427581787E0,-2.560207367E0,5.202175617E0
3.787028061E0,3.367581844E0,-2.255257607E0,4.845175266E0
3.789530573E0,3.624432325E0,-2.156866074E0,4.241566181E0
3.792033571E0,3.971492767E0,-1.957701683E0,4.021597862E0
3.794536347E0,4.271626472E0,-1.722710609E0,3.883543968E0
3.797039116E0,4.382160187E0,-1.527796745E0,3.666306019E0
3.799541858E0,4.449944496E0,-1.272919655E0,3.319863558E0
3.802044627E0,4.445812702E0,-1.121339798E0,2.969026566E0
3.804547396E0,4.341295242E0,-1.047825813E0,2.810815096E0
3.807050189E0,4.199489117E0,-9.747714996E-1,2.618862629E0
3.809552958E0,4.105364799E0,-1.020586014E0,2.456778526E0
3.812055727E0,3.772675276E0,-9.527235031E-1,2.147613525E0
3.814558496E0,3.566575289E0,-7.827730179E-1,1.668513417E0
3.817061341E0,3.399625301E0,-6.867733002E-1,1.230513453E0
3.819564112E0,3.308575392E0,-7.157230377E-1,1.024563432E0
3.822066882E0,3.298675299E0,-7.437734604E-1,7.035633326E-1
3.824569651E0,3.135625362E0,-7.847232819E-1,3.326133490E-1
3.827072420E0,2.862625360E0,-7.797727585E-1,-8.648669720E-2
3.829575418E0,2.743675232E0,-7.176733017E-1,-5.174367428E-1
3.832078155E0,2.507061005E0,-7.839641571E-1,-1.827517152E0
3.834580925E0,2.268801689E0,-7.028369904E-1,-2.348887444E0
3.837083694E0,2.132669449E0,-6.447601318E-1,-2.567237139E0
3.839586468E0,2.190510035E0,-5.927648544E-1,-2.870433331E0
3.842089237E0,2.089036942E0,-5.662155151E-1,-2.814531088E0
3.844592021E0,1.974991560E0,-5.417013168E-1,-3.199720144E0
3.847094790E0,1.961330175E0,-3.923234940E-1,-3.908162117E0
3.849597559E0,1.659655452E0,-3.397607803E-1,-4.597865105E0
3.852100333E0,1.254608154E0,-1.696929932E-1,-4.870488167E0
3.854603177E0,1.069070816E0,1.500415802E-2,-5.049501419E0
3.857105843E0,1.039721489E0,1.675558090E-1,-5.103689194E0
3.859608687E0,9.344341755E-1,2.761917114E-1,-5.040787697E0
3.862111458E0,9.584343433E-1,3.712921143E-1,-4.841737747E0
3.864614227E0,1.070334196E0,4.812421799E-1,-4.625738144E0
3.867116997E0,1.250334263E0,5.172424316E-1,-4.520737648E0
3.869619766E0,1.398384213E0,5.152921677E-1,-4.218788147E0
3.872122535E0,1.487334251E0,4.531917572E-1,-3.938737869E0
3.874625533E0,1.461384296E0,4.771919250E-1,-3.869737864E0
3.877128304E0,1.300434232E0,4.291915894E-1,-3.763687849E0
3.879631055E0,1.045567513E0,2.341670990E-1,-4.099685669E0
3.882133824E0,6.950519085E-1,2.005414963E-1,-4.313455105E0
3.884636593E0,3.825891018E-1,1.792936325E-1,-4.412064552E0
3.887139416E0,4.692149162E-2,2.630681992E-1,-4.551148415E0
3.889642186E0,-1.552925110E-1,2.282695770E-1,-4.678215027E0
3.892144955E0,-3.747103214E-1,9.298133850E-2,-4.693792343E0
3.894647748E0,-5.334463120E-1,-3.203964233E-2,-4.556970119E0
3.897150592E0,-5.023796558E-1,-2.562713623E-2,-4.718262196E0
3.899653286E0,-4.087007046E-1,-1.175117493E-1,-4.990202427E0
3.902156145E0,-2.626616955E-1,-1.838388443E-1,-5.470136642E0
3.904658916E0,-3.147459030E-1,-1.420030594E-1,-5.548657417E0
3.907161685E0,-5.326957703E-1,-1.300029755E-1,-5.884657860E0
3.909664454E0,-6.477456093E-1,3.946304321E-3,-6.289657593E0
3.912167224E0,-5.737957954E-1,5.899715424E-2,-6.715657711E0
3.914670222E0,-6.817955971E-1,1.839466095E-1,-6.973657608E0
3.917172993E0,-8.277459145E-1,1.980466843E-1,-7.179758072E0
3.919675762E0,-8.587956429E-1,1.669969559E-1,-7.218757629E0
3.922178531E0,-7.227458954E-1,2.250471115E-1,-7.139707565E0
3.924681296E0,-3.984088898E-1,1.130104065E-1,-7.333090305E0
3.927184065E0,-4.745676517E-1,1.039686203E-1,-6.983268738E0
3.929686834E0,-4.291253090E-1,8.417797089E-2,-6.542555809E0
3.932189589E0,-3.225073814E-1,1.986570358E-1,-6.028933525E0
3.934692358E0,-1.404070854E-1,1.767568588E-1,-5.681983471E0
3.937195127E0,-1.404070854E-1,1.317567825E-1,-5.206033707E0
3.939697972E0,1.218461990E-2,3.921031952E-2,-4.536045074E0
3.942200743E0,6.358098984E-2,-1.122646332E-1,-3.912059546E0
3.944703502E0,2.281448841E-1,-2.436895370E-1,-3.346512318E0
3.947206272E0,2.380046844E-1,-2.415304184E-1,-2.661746740E0
3.949709041E0,3.744308949E-1,-1.945371628E-1,-2.053140163E0
3.952212054E0,5.257034302E-1,-2.159299850E-1,-1.631826520E0
3.954714820E0,6.067175865E-1,-1.956701279E-1,-1.122557640E0
3.957217589E0,5.807676315E-1,-2.166700363E-1,-6.916074753E-1
3.959720359E0,5.756676197E-1,-3.396701813E-1,-2.695076466E-1
3.962223128E0,5.777676105E-1,-4.157199860E-1,9.439253807E-2
3.964725897E0,5.947175026E-1,-5.136699677E-1,4.873924255E-1
3.967228666E0,5.587174892E-1,-7.517204285E-1,7.794425488E-1
3.969731435E0,4.796676636E-1,-9.767198563E-1,9.394924641E-1
3.972234204E0,3.767676353E-1,-1.234720230E0,1.241442442E0
3.974736973E0,4.054946899E-1,-1.720984459E0,1.316122532E0
3.977239818E0,1.959557533E-1,-2.120527267E0,1.213450193E0
3.979742603E0,2.743244171E-3,-2.515731812E0,1.017822504E0
3.982245373E0,-1.062784195E-1,-2.965734482E0,5.720338821E-1
3.984748142E0,-9.746217728E-2,-3.379675865E0,1.587245464E-1
3.987250911E0,1.190958023E-1,-3.821494102E0,-3.121161461E-1
3.989753880E0,3.734817505E-1,-4.110719681E0,-8.780164719E-1
3.992256651E0,7.072770596E-1,-4.281066895E0,-1.528821588E0
3.994759436E0,1.067362547E0,-4.360442162E0,-2.180996418E0
3.997262205E0,1.402312517E0,-4.357442856E0,-2.846096516E0
3.999764974E0,1.730362654E0,-4.369442940E0,-3.557096481E0
4.002267743E0,2.056312561E0,-4.396442413E0,-4.277996540E0
4.004770513E0,2.468362570E0,-4.307492256E0,-5.051096439E0
4.007273282E0,2.499262571E0,-3.938492775E0,-5.585096359E0
4.009776051E0,2.950312614E0,-4.089392662E0,-6.248996735E0
4.012278820E0,3.364312649E0,-4.192442894E0,-6.991046906E0
4.014781664E0,3.797362804E0,-4.326392174E0,-7.628096581E0
4.017284436E0,4.307374954E0,-4.672286987E0,-8.441654205E0
4.019787190E0,4.498341560E0,-4.707031727E0,-8.740776062E0
4.022289959E0,4.625417709E0,-4.706524372E0,-8.749371529E0
4.024792714E0,4.788558483E0,-4.669205666E0,-8.606607437E0
4.027295484E0,4.860686302E0,-4.623991966E0,-8.160497665E0
4.029798482E0,4.900957584E0,-4.646962166E0,-7.501651287E0
4.032301267E0,4.986540794E0,-4.660511017E0,-6.640486717E0
4.034804036E0,5.061749458E0,-4.672451496E0,-5.790254593E0
4.037306824E0,5.044806480E0,-4.760741711E0,-4.875509739E0
4.039809594E0,5.003943920E0,-4.876210213E0,-3.916810036E0
4.042312363E0,5.119155407E0,-5.034277439E0,-3.047814608E0
4.044815132E0,5.194705486E0,-5.230934620E0,-2.264700413E0
4.047317901E0,5.221705437E0,-5.389034748E0,-1.514700294E0
4.049820745E0,5.259655476E0,-5.590034962E0,-8.436002731E-1
4.052323517E0,5.345605373E0,-5.806035519E0,-3.627002239E-1
4.054826286E0,5.429605484E0,-5.963984966E0,-2.760028839E-2
4.057329055E0,5.491705418E0,-6.068985462E0,3.943498135E-1
4.059831824E0,5.728705406E0,-6.223035336E0,7.433996201E-1
4.062334594E0,5.965705395E0,-6.272984982E0,1.026299953E0
4.064837592E0,6.195393085E0,-6.407755852E0,1.421049833E0
4.067340122E0,6.385024548E0,-6.584784508E0,1.523871660E0
4.069843120E0,6.719139576E0,-6.647570610E0,1.497940302E0
4.072345661E0,6.933602810E0,-6.643953800E0,1.439013958E0
4.074848659E0,7.119609833E0,-6.652723312E0,1.099694490E0
4.077351430E0,7.127192974E0,-6.663015842E0,5.623342991E-1
4.079854213E0,7.134499073E0,-6.517249584E0,-3.543591499E-2
4.082356982E0,7.089226723E0,-6.249429226E0,-5.416805744E-1
4.084859751E0,7.089173794E0,-5.970831871E0,-1.039161444E0
4.087362596E0,6.984227657E0,-5.593730927E0,-1.498858213E0
4.089865381E0,6.805280685E0,-5.157587051E0,-2.096933842E0
4.092368150E0,6.650330544E0,-4.875587463E0,-2.764883995E0
4.094870919E0,6.492380619E0,-4.724536896E0,-3.481884003E0
4.097373689E0,6.365330696E0,-4.566587448E0,-4.245833874E0
4.099876458E0,6.164330482E0,-4.384487152E0,-5.095884323E0
4.102379227E0,5.847380638E0,-4.206586838E0,-6.010884285E0
4.104881996E0,5.515280247E0,-4.058537483E0,-7.019934177E0
4.107384994E0,5.330330372E0,-4.070536613E0,-7.914834023E0
4.109887766E0,5.128785133E0,-4.146241665E0,-8.740447044E0
4.112390535E0,4.931410789E0,-4.192645073E0,-9.447900772E0
4.114893319E0,4.794742584E0,-4.298437595E0,-9.989020348E0
4.117396088E0,4.673281670E0,-4.499835014E0,-1.035874271E1
4.119898927E0,4.603107452E0,-4.675127506E0,-1.059078121E1
4.122401699E0,4.500272751E0,-4.836161613E0,-1.063998032E1
4.124904468E0,4.341412544E0,-5.006857872E0,-1.060533619E1
4.127407237E0,4.159998417E0,-5.232255936E0,-1.045189667E1
4.129910020E0,3.957305670E0,-5.412795067E0,-1.022682953E1
4.132412790E0,3.689622402E0,-5.542659283E0,-9.988508224E0
4.134915559E0,3.512622356E0,-5.703758717E0,-9.909458160E0
4.137418347E0,3.274572372E0,-5.837708950E0,-9.863409042E0
4.139921116E0,3.044500589E0,-5.943854809E0,-9.930031776E0
4.142424114E0,2.924149275E0,-5.968429565E0,-1.011443615E1
4.144926886E0,2.813549042E0,-5.983941078E0,-1.019279289E1
4.147429646E0,2.707422733E0,-5.939287186E0,-1.031632042E1
4.149932415E0,2.746906757E0,-5.996682167E0,-1.040290642E1
4.152435184E0,2.837251186E0,-6.041212082E0,-1.045251083E1
4.154938028E0,2.866816759E0,-6.091856003E0,-1.036173916E1
4.157440800E0,3.154816866E0,-6.173906326E0,-1.002873898E1
4.159943569E0,3.266866684E0,-6.245905876E0,-9.769838333E0
4.162446338E0,3.460816860E0,-6.467905998E0,-9.266738892E0
4.164949107E0,3.808816910E0,-6.664855957E0,-8.778788567E0
4.167451877E0,3.767866850E0,-6.829855919E0,-8.229788780E0
4.169954646E0,3.913816929E0,-7.011956215E0,-7.566788673E0
4.172457415E0,4.050916672E0,-7.126855850E0,-6.788738251E0
4.174960398E0,3.897485971E0,-6.958647728E0,-5.433715343E0
4.177463169E0,3.989003181E0,-7.092246056E0,-4.566742420E0
4.179965939E0,4.360738754E0,-7.212589264E0,-3.858160019E0
4.182468694E0,4.799554825E0,-7.274782181E0,-3.119768143E0
4.184971538E0,4.668666363E0,-7.354870796E0,-2.206112146E0
4.187474232E0,4.274791718E0,-7.280740738E0,-8.505711555E-1
4.189976999E0,4.190482616E0,-7.322392464E0,3.682920933E-1
4.192479865E0,4.096979141E0,-7.165351868E0,9.484556913E-1
4.194982559E0,3.821685553E0,-6.890577316E0,1.307225227E0
4.197485403E0,3.546563387E0,-6.853216171E0,1.861355186E0
4.199988164E0,3.383516073E0,-6.635368347E0,2.590130806E0
4.202490934E0,3.371512890E0,-6.366804123E0,3.318617582E0
4.204993713E0,3.612750769E0,-6.178874969E0,3.700656652E0
4.207496711E0,3.174750805E0,-6.082875252E0,4.172706604E0
4.209999482E0,2.790750504E0,-5.946974754E0,5.005657196E0
4.212502251E0,2.992800713E0,-5.788875580E0,5.307606697E0
4.215005021E0,2.987850666E0,-5.617875099E0,5.379607201E0
4.217507790E0,2.525850773E0,-5.443875313E0,5.779656410E0
4.220010559E0,1.983750582E0,-5.323875427E0,6.323706627E0
4.222513328E0,1.296750546E0,-5.213925362E0,7.053606987E0
4.225016097E0,4.891214371E-1,-4.718122482E0,8.318632126E0
4.227518942E0,-3.405601978E-1,-4.554147720E0,8.789328575E0
4.230021713E0,-1.997450352E0,-4.940666199E0,9.769530296E0
4.232524482E0,-3.712908745E0,-5.129402161E0,1.055380440E1
4.235027251E0,-5.083099365E0,-5.331077576E0,1.109896851E1
4.237530016E0,-5.966773987E0,-5.678634644E0,1.173201942E1
4.240033014E0,-6.920965672E0,-5.933787346E0,1.211011410E1
4.242535785E0,-7.570017338E0,-6.090575218E0,1.226197052E1
4.245038559E0,-7.938793659E0,-6.421704292E0,1.245738888E1
4.247541328E0,-8.519361496E0,-6.891038895E0,1.267250919E1
4.250044098E0,-7.944687843E0,-7.324263573E0,1.246921921E1
4.252546843E0,-7.361696720E0,-7.499890327E0,1.177229118E1
4.255049612E0,-6.780856133E0,-7.464659691E0,1.070951653E1
4.257552456E0,-6.804856300E0,-6.951659203E0,1.007756615E1
4.260055227E0,-8.193856239E0,-5.960610390E0,1.055156612E1
4.262557997E0,-8.339956284E0,-6.379560471E0,1.059746647E1
4.265060766E0,-8.258956909E0,-6.992609978E0,1.001546669E1
4.267563764E0,-8.900956154E0,-6.994559288E0,9.330566406E0
4.270066535E0,-9.733906746E0,-6.374609947E0,8.221466064E0
4.272569304E0,-1.095295620E1,-5.495610237E0,6.801566601E0
4.275072074E0,-1.292004490E1,-4.406717300E0,5.308750629E0
4.277574843E0,-1.377153683E1,-3.511054039E0,3.026478767E0
4.280077612E0,-1.385935020E1,-2.558317184E0,-1.330140233E-1
4.282580371E0,-1.326140022E1,-1.748780251E0,-5.057785511E0
4.285083140E0,-1.184161186E1,-1.205740929E0,-1.167851830E1
4.287585985E0,-9.833818436E0,-7.204389572E-1,-1.824228668E1
4.290088785E0,-9.304980278E0,-5.920057297E-1,-1.774113655E1
4.292591554E0,-9.383383751E0,-4.512443542E-1,-1.524906254E1
4.295094323E0,-8.750177383E0,3.795566559E-1,-1.411819077E1
4.297597088E0,-8.714192390E0,9.636297226E-1,-1.237428761E1
4.300099857E0,-9.028841019E0,8.281383514E-1,-1.047113037E1
4.302602855E0,-8.480574608E0,1.120754242E0,-8.785625458E0
4.305105371E0,-7.903274536E0,1.469507217E0,-7.035865307E0
4.307608369E0,-7.447139263E0,1.786848068E0,-5.063287735E0
4.310111141E0,-7.150138378E0,1.997898102E0,-3.475387573E0
4.312613910E0,-6.590038776E0,2.114897728E0,-2.108287334E0
4.315116754E0,-5.907088757E0,2.210897923E0,-5.803874731E-1
4.317619525E0,-5.548138618E0,2.191847801E0,9.766125679E-1
4.320122294E0,-5.536138535E0,2.385948181E0,2.070712566E0
4.322625064E0,-5.500138760E0,2.883947849E0,2.956612587E0
4.325127833E0,-5.432569027E0,3.211786747E0,3.677969456E0
4.327630602E0,-5.390460968E0,3.397190094E0,4.253290653E0
4.330133371E0,-4.856868267E0,3.508271694E0,4.568425655E0
4.332636140E0,-4.248311043E0,3.560595512E0,4.922992706E0
4.335139139E0,-3.879985332E0,3.606064320E0,5.216033936E0
4.337641896E0,-3.648618221E0,3.775994778E0,5.629055500E0
4.340144665E0,-3.628426313E0,3.903278351E0,5.851867676E0
4.342647434E0,-3.543844223E0,3.825510502E0,5.865595818E0
4.345150284E0,-3.264788389E0,4.424304008E0,5.857000828E0
4.347652978E0,-2.835617304E0,4.710901260E0,5.878918648E0
4.350155822E0,-2.689184189E0,4.829425335E0,6.101981163E0
4.352658602E0,-2.343479633E0,4.832695961E0,6.144142151E0
4.355161372E0,-1.953184366E0,5.046574116E0,6.187153339E0
4.357664141E0,-1.179184675E0,5.120524406E0,6.654253006E0
4.360166910E0,-7.581346035E-1,5.152624130E0,6.899203300E0
4.362669679E0,-4.681844711E-1,5.053624153E0,7.337203026E0
4.365172677E0,-9.513449669E-2,4.941574097E0,7.900153160E0
4.367675448E0,2.119154930E-1,4.811524391E0,8.101153374E0
4.370178218E0,1.076815486E0,4.677574158E0,8.963203430E0
4.372680987E0,2.860915661E0,4.299574375E0,9.181154251E0
4.375183708E0,4.987329483E0,3.713636875E0,8.783530235E0
4.377686477E0,7.100905895E0,3.230567455E0,7.624185085E0
4.380189327E0,8.867488861E0,2.765784264E0,6.217437267E0
4.382692098E0,9.780205727E0,2.200920582E0,4.730159760E0
4.385194867E0,1.005454731E1,1.961865425E0,3.475374460E0
4.387697636E0,1.021232033E1,1.757484913E0,2.075924158E0
4.390200396E0,9.951198578E0,1.615598202E0,1.477632523E0
4.392703394E0,9.007529259E0,1.808373451E0,1.616527200E0
4.395206180E0,7.747014999E0,2.153482437E0,1.564039469E0
4.397708949E0,5.860201836E0,2.769031048E0,1.643230438E0
4.400211718E0,3.383186817E0,3.429482460E0,1.946877480E0
4.402714472E0,1.276105046E0,4.086669922E0,2.116256237E0
4.405217242E0,2.348184586E-3,4.536343098E0,2.362751722E0
4.407720011E0,-5.726017952E-1,4.812343121E0,2.702801704E0
4.410222855E0,-6.656019688E-1,5.013342857E0,3.069701672E0
4.412725626E0,-6.606519222E-1,5.099442959E0,3.395801783E0
4.415228396E0,-5.576019287E-1,5.111443043E0,3.617801666E0
4.417731165E0,-4.766018391E-1,5.200393200E0,3.711701870E0
4.420233934E0,-6.107017994E-1,5.307343006E0,3.790751696E0
4.422736932E0,-9.006519318E-1,5.518393040E0,3.735701799E0
4.425239473E0,-1.442709208E0,5.768434525E0,3.872017860E0
4.427742467E0,-1.861360073E0,6.049571991E0,3.885244370E0
4.430245238E0,-2.319597006E0,6.279274940E0,3.941817284E0
4.432748007E0,-2.701706648E0,6.522315502E0,3.995487928E0
4.435250771E0,-3.126556158E0,6.776197910E0,4.120913982E0
4.437753615E0,-3.487195015E0,6.993960381E0,4.102930069E0
4.440256382E0,-3.860245228E0,7.182960510E0,4.188880444E0
4.442759151E0,-4.193253517E0,7.419984818E0,4.365448475E0
4.445261920E0,-4.488128662E0,7.553291321E0,4.440464973E0
4.447764602E0,-4.877672672E0,7.669168949E0,4.496508598E0
4.450267372E0,-5.173480511E0,7.863379478E0,4.414636135E0
4.452770141E0,-4.991403580E0,7.858352184E0,4.201605320E0
4.455273139E0,-5.015402794E0,7.874402046E0,4.165605545E0
4.457775910E0,-5.156403542E0,7.946402073E0,4.089555264E0
4.460278679E0,-5.281352997E0,7.999352455E0,4.062555313E0
4.462781449E0,-5.432403564E0,8.013301849E0,4.077555180E0
4.465284293E0,-5.717403412E0,8.085302353E0,4.158555508E0
4.467786987E0,-6.042452812E0,8.145301819E0,4.276605606E0
4.470289831E0,-6.220353127E0,8.217302322E0,4.314555168E0
4.472792511E0,-6.340847969E0,8.334607124E0,4.317372322E0
4.475295356E0,-6.375968456E0,8.401099205E0,4.158026695E0
4.477798127E0,-6.356832504E0,8.457319260E0,3.928002596E0
4.480300891E0,-6.407795906E0,8.594555855E0,3.631160021E0
4.482803889E0,-6.442997932E0,8.664006233E0,3.103931904E0
4.485306660E0,-6.304533005E0,8.678313255E0,2.692313910E0
4.487809439E0,-5.937598705E0,8.671409607E0,2.378879070E0
4.490312208E0,-5.684465408E0,8.674350739E0,2.220468521E0
4.492814973E0,-5.386635780E0,8.604141235E0,2.012049198E0
4.495317742E0,-5.273685455E0,8.561091423E0,1.923999071E0
4.497820512E0,-5.264685631E0,8.432091713E0,1.718049049E0
4.500323356E0,-5.154735565E0,8.302191734E0,1.734999180E0
4.502826127E0,-4.928685188E0,8.216091156E0,1.895049095E0
4.505328896E0,-4.837635040E0,8.106142044E0,2.076999187E0
4.507831665E0,-4.780634880E0,7.965141773E0,2.043999195E0
4.510334435E0,-4.708635330E0,7.740141869E0,1.640949249E0
4.512837433E0,-4.495419502E0,7.449839592E0,7.957400680E-1
4.515340001E0,-4.201313019E0,7.146223068E0,4.158684015E-1
4.517842999E0,-3.656694889E0,6.789965153E0,4.843690991E-2
4.520345765E0,-2.920058012E0,6.262458801E0,-8.087131977E-1
4.522848535E0,-2.429227591E0,5.689670563E0,-2.129168034E0
4.525351304E0,-1.603780746E0,4.993237019E0,-3.430102110E0
4.527854139E0,-7.420797348E-1,4.264415264E0,-4.246932507E0
4.530356910E0,-9.806489944E-2,3.336910725E0,-5.600009441E0
4.532859679E0,3.586697578E-2,2.414601326E0,-7.200553417E0
4.535362449E0,4.291701317E-2,1.339550972E0,-8.713454247E0
4.537865218E0,4.648671150E-1,4.035511017E-1,-1.022950459E1
4.540367987E0,3.708171844E-1,-9.783983231E-1,-1.190155411E1
4.542870756E0,2.538170815E-1,-2.442399025E0,-1.404955482E1
4.545373754E0,1.022867084E0,-3.469449043E0,-1.675345421E1
4.547876526E0,2.251817226E0,-5.342498779E0,-2.074855423E1
4.550379295E0,4.561817169E0,-7.960449219E0,-2.497345352E1
4.552882059E0,8.091318130E0,-1.076964951E1,-2.625980568E1
4.555384903E0,1.156010056E1,-1.365435982E1,-2.256178474E1
4.557887584E0,1.524684238E1,-1.647848129E1,-1.622666931E1
4.560390428E0,1.837911987E1,-1.904326248E1,-1.010694408E1
4.562893199E0,1.979046249E1,-2.109543991E1,-5.385439396E0
4.565395967E0,1.947944260E1,-2.238978004E1,-2.736292124E0
4.567898736E0,1.667306519E1,-2.269062233E1,-1.659613132E0
4.570401734E0,1.311295891E1,-2.129563522E1,-2.545591831E0
4.572904506E0,1.032790852E1,-2.000068665E1,-3.867541790E0
4.575407275E0,7.786908627E0,-1.888468552E1,-5.175541878E0
4.577910044E0,5.689008713E0,-1.746868515E1,-6.677641869E0
4.580412813E0,4.162908554E0,-1.632658386E1,-7.623541832E0
4.582915583E0,3.217008352E0,-1.505968571E1,-8.631542206E0
4.585418427E0,2.968908310E0,-1.346458530E1,-9.522542953E0
4.587921198E0,3.178908348E0,-1.162963581E1,-1.007559299E1
4.590423967E0,3.078681707E0,-9.657460213E0,-1.077327633E1
4.592926737E0,3.206089973E0,-7.593988419E0,-1.112013245E1
4.595429735E0,3.356811762E0,-5.455513000E0,-1.125572109E1
4.597932522E0,3.467408180E0,-3.497503281E0,-1.101498795E1
4.600435291E0,3.603524685E0,-1.962432861E0,-1.051445007E1
4.602938036E0,3.866698503E0,-9.067173004E-1,-9.930583954E0
4.605440805E0,3.947582483E0,-9.287834167E-2,-9.209278107E0
4.607943570E0,3.898319244E0,4.015541077E-1,-8.338025093E0
4.610446414E0,3.678581238E0,7.683410645E-1,-7.177330017E0
4.612949170E0,3.182247162E0,9.754810333E-1,-5.603568554E0
4.615451939E0,2.900247335E0,6.154804230E-1,-4.376568317E0
4.617954709E0,1.706247211E0,4.695310593E-1,-3.210618496E0
4.620457478E0,1.942470074E-1,3.525304794E-1,-2.221518517E0
4.622960247E0,-5.887529850E-1,-3.325195312E-1,-1.469568491E0
4.625463245E0,-1.644752741E0,-9.044694901E-1,-9.685684443E-1
4.627966016E0,-2.777703047E0,-1.300469398E0,-8.085184693E-1
4.630468786E0,-3.335703135E0,-1.879468918E0,-9.036184549E-1
4.632971555E0,-3.567994356E0,-2.538605690E0,-1.098046422E0
4.635474405E0,-4.014014244E0,-3.017769814E0,-1.261412382E0
4.637977249E0,-4.050899506E0,-3.586677551E0,-1.478741407E0
4.640480020E0,-3.880816936E0,-4.048305511E0,-1.633244276E0
4.642982780E0,-3.642119169E0,-4.416354179E0,-1.794295073E0
4.645485549E0,-3.496398449E0,-4.957992554E0,-2.268811941E0
4.647988318E0,-3.576212645E0,-5.683878899E0,-3.485687971E0
4.650491316E0,-4.125975132E0,-6.228930473E0,-5.323919296E0
4.652994078E0,-4.527298450E0,-6.925679207E0,-7.446450233E0
4.655496848E0,-4.714348316E0,-7.282679558E0,-9.336450577E0
4.657999617E0,-5.351398468E0,-7.237679482E0,-1.041840076E1
4.660502386E0,-5.904298782E0,-6.719578743E0,-1.021740055E1
4.663005155E0,-6.285298347E0,-5.431678772E0,-8.349450111E0
4.665507925E0,-6.582298279E0,-3.802679062E0,-5.973450184E0
4.668010769E0,-6.762298584E0,-2.308678627E0,-3.775349855E0
4.670513540E0,-6.743398666E0,-7.806282043E-1,-1.710449934E0
4.673016309E0,-7.026695251E0,6.481904984E-1,3.357060552E-1
4.675519326E0,-7.528394699E0,2.024494171E0,2.267898321E0
4.678022097E0,-7.630681992E0,3.214351177E0,4.571643353E0
4.680524867E0,-7.415963173E0,4.083403587E0,7.043667316E0
4.683027636E0,-7.446851730E0,4.665123940E0,8.112783432E0
4.685530405E0,-7.925827980E0,5.424251080E0,8.265142441E0
4.688033174E0,-7.866101265E0,5.941097260E0,8.248218536E0
4.690535954E0,-7.349344254E0,6.347713470E0,8.436453819E0
4.693038798E0,-6.768296719E0,6.550917149E0,8.937487602E0
4.695541593E0,-6.338643074E0,6.738866329E0,9.827626228E0
4.698044362E0,-5.935530663E0,6.870936394E0,1.090666676E1
4.700547360E0,-5.731530190E0,6.898986816E0,1.143166637E1
4.703050131E0,-5.571630478E0,6.929886818E0,1.145566654E1
4.705552670E0,-5.451630592E0,6.865986824E0,1.134061623E1
4.708055668E0,-5.506530762E0,6.673986435E0,1.108666611E1
4.710558439E0,-5.954580307E0,6.362886429E0,1.067956638E1
4.713061208E0,-6.467580795E0,5.926986694E0,9.926566124E0
4.715564053E0,-7.058580399E0,5.449986458E0,9.007666588E0
4.718066824E0,-7.492978096E0,4.941711426E0,8.281051636E0
4.720569626E0,-7.845482826E0,4.469005108E0,7.596433640E0
4.723072395E0,-8.018952370E0,3.917715073E0,6.941450119E0
4.725575165E0,-7.988929272E0,3.297418594E0,6.213658810E0
4.728077949E0,-7.856536865E0,2.663156033E0,5.461315155E0
4.730580718E0,-7.737691879E0,2.144101143E0,4.749759674E0
4.733083716E0,-7.572588921E0,1.609316349E0,4.290948391E0
4.735586496E0,-7.130199909E0,1.279532433E0,3.928564548E0
4.738089265E0,-6.830610275E0,1.015995026E0,3.778212070E0
4.740592035E0,-6.557334423E0,9.136734009E-1,3.779583216E0
4.743094870E0,-6.033673286E0,8.500738144E-1,3.681039572E0
4.745597641E0,-5.617120743E0,8.067522049E-1,3.517474174E0
4.748100410E0,-5.153262138E0,9.480733871E-1,3.480090857E0
4.750603180E0,-4.660361290E0,1.032073021E0,3.639090776E0
4.753105949E0,-4.250261307E0,1.034023285E0,3.682140589E0
4.755608947E0,-3.805361509E0,1.001023293E0,3.804090738E0
4.758111718E0,-3.383261442E0,9.740238190E-1,3.895140886E0
4.760614487E0,-3.024311304E0,1.056073189E0,3.828090906E0
4.763117257E0,-2.784311533E0,1.053073883E0,3.744090796E0
4.765620026E0,-2.636261225E0,1.089073181E0,3.849090815E0
4.768122799E0,-2.069628000E0,9.562931061E-1,3.946125269E0
4.770625568E0,-1.803868294E0,8.211469650E-1,3.960016727E0
4.773128441E0,-1.527952433E0,6.453523636E-1,3.970598221E0
4.775631213E0,-1.176370859E0,3.648500443E-1,4.022971153E0
4.778134006E0,-8.642151356E-1,1.686248779E-1,4.094800472E0
4.780637004E0,-6.173422337E-1,-7.649898529E-2,4.125369549E0
4.783139544E0,-2.033724785E-1,-6.835803986E-1,3.660482645E0
4.785642557E0,4.711890221E-2,-1.191528320E0,3.381450653E0
4.788145329E0,4.378533363E-2,-1.569282532E0,3.027847290E0
4.790648098E0,1.116707325E-1,-2.101996422E0,2.604517937E0
4.793150867E0,1.596708298E-1,-2.577046394E0,2.336467981E0
4.795653711E0,2.436709404E-1,-3.052996635E0,2.199517965E0
4.798156482E0,5.117208958E-1,-3.529996872E0,2.185418129E0
4.800659252E0,6.356208324E-1,-3.882046700E0,2.316518068E0
4.803162021E0,6.626207829E-1,-4.159996986E0,2.606467962E0
4.805664790E0,6.986207962E-1,-4.393996239E0,2.855468035E0
4.808167559E0,7.146708965E-1,-4.576096535E0,2.982517958E0
4.810670557E0,1.103686571E0,-4.762001038E0,3.232518196E0
4.813173329E0,1.362939835E0,-4.909875870E0,3.443591118E0
4.815676112E0,1.710749626E0,-4.952023506E0,3.668589592E0
4.818178881E0,2.165052891E0,-4.850827217E0,3.937704325E0
4.820681650E0,2.471790791E0,-4.693725586E0,4.235090256E0
4.823184510E0,2.796669483E0,-4.508399010E0,4.543044090E0
4.825687281E0,3.397024870E0,-4.305840492E0,4.821015358E0
4.828190050E0,3.736209393E0,-4.031969070E0,5.403180122E0
4.830692833E0,4.144308567E0,-3.685400963E0,6.358824730E0
4.833195831E0,4.482545376E0,-3.330610275E0,7.007701874E0
4.835698593E0,4.681235790E0,-3.017850876E0,7.311577320E0
4.838201363E0,4.875247955E0,-2.828192711E0,7.226366043E0
4.840704132E0,4.982899189E0,-2.630244255E0,6.876698494E0
4.843206901E0,4.987999439E0,-2.464194298E0,6.634748459E0
4.845709670E0,5.104999542E0,-2.361293793E0,6.435698509E0
4.848212515E0,5.456899643E0,-2.174243927E0,6.346748352E0
4.850715286E0,5.677999496E0,-1.921194077E0,6.409748554E0
4.853218055E0,5.519899368E0,-1.710293770E0,6.279698372E0
4.855720824E0,5.320999146E0,-1.614294052E0,6.507698536E0
4.858223822E0,5.289949417E0,-1.545293808E0,6.732698441E0
4.860726382E0,5.474323273E0,-1.509207726E0,6.229521751E0
4.863229380E0,5.338438034E0,-1.393235207E0,5.768110275E0
4.865732155E0,4.927648067E0,-1.288893700E0,5.462090492E0
4.868234924E0,4.671335697E0,-1.170001030E0,5.236896038E0
4.870737768E0,4.743029594E0,-1.092330933E0,4.984411716E0
4.873240540E0,4.891807079E0,-1.202273369E0,4.859574795E0
4.875743300E0,4.752254009E0,-1.255212784E0,4.555165768E0
4.878246069E0,4.541500092E0,-1.368040085E0,3.701561213E0
4.880748838E0,3.988956213E0,-1.150687218E0,2.523747444E0
4.883251608E0,3.546006203E0,-1.009687424E0,1.670697212E0
4.885754606E0,3.493056297E0,-8.316373825E-1,7.436971664E-1
4.888257377E0,3.366006374E0,-6.477375031E-1,-6.525290012E-2
4.890760146E0,2.971056223E0,-4.846878052E-1,-5.493029356E-1
4.893262915E0,2.659956217E0,-4.296369553E-1,-8.203529119E-1
4.895765685E0,2.704956293E0,-2.376375198E-1,-1.052253008E0
4.898268454E0,2.683956146E0,-1.926374435E-1,-1.253252983E0
4.900771283E0,2.559680939E0,-4.590072632E-1,-2.235637188E0
4.903274054E0,2.406296730E0,-3.608179092E-1,-2.285657406E0
4.905776809E0,2.248234510E0,-3.318004608E-1,-2.553274155E0
4.908279579E0,2.082792282E0,-2.879962921E-1,-2.766778708E0
4.910782577E0,1.887923956E0,-3.321123123E-1,-2.860105515E0
4.913285372E0,1.673154354E0,-4.014596939E-1,-2.941392899E0
4.915788166E0,1.625963688E0,-4.307928085E-1,-3.296673536E0
4.918290935E0,1.767354012E0,-4.469566345E-1,-3.594427347E0
4.920793705E0,1.927758455E0,-2.809724808E-1,-3.715781450E0
4.923296549E0,1.731430054E0,-1.592264175E-1,-3.935228825E0
4.925799325E0,1.353564739E0,-7.935047150E-2,-4.089061260E0
4.928302094E0,9.139904976E-1,-5.502414703E-2,-4.484861851E0
4.930804863E0,3.548433781E-1,1.411542892E-1,-5.379350662E0
4.933307633E0,-2.891068459E-1,3.181538582E-1,-6.899450779E0
4.935810631E0,-7.991065979E-1,2.682037354E-1,-8.224401474E0
4.938313402E0,-1.039106846E0,2.512540817E-1,-9.512451172E0
4.940816171E0,-1.297106743E0,2.302541733E-1,-1.090940094E1
4.943318940E0,-1.697156906E0,3.331542015E-1,-1.208540154E1
4.945821710E0,-1.903106689E0,2.562036514E-1,-1.293035126E1
4.948324554E0,-2.157206535E0,-2.845764160E-3,-1.327535057E1
4.950827238E0,-2.229206562E0,-2.008457184E-1,-1.355045128E1
4.953330082E0,-1.800545216E0,-6.215858459E-1,-1.377683926E1
4.955832854E0,-1.354022503E0,-6.971850395E-1,-1.318222809E1
4.958335852E0,-9.272966385E-1,-6.883482933E-1,-1.273306084E1
4.960838628E0,-4.243726730E-1,-5.995168686E-1,-1.221225452E1
4.963341397E0,-1.310033798E-1,-6.173796654E-1,-1.145613670E1
4.965844166E0,-1.135039330E-1,-6.876726151E-1,-1.053435707E1
4.968346936E0,4.011960030E-1,-8.662548065E-1,-9.752585411E0
4.970849700E0,7.698035240E-1,-9.783124924E-1,-8.902609825E0
4.973352524E0,6.731977463E-1,-9.428029060E-1,-7.642274857E0
4.975855295E0,6.992976665E-1,-1.093852520E0,-6.984375000E0
4.978358064E0,9.602978230E-1,-1.270852566E0,-6.478274822E0
4.980860834E0,1.121247768E0,-1.354852200E0,-5.916375160E0
4.983363603E0,1.068297863E0,-1.476802349E0,-5.487374783E0
4.985866372E0,1.037247658E0,-1.569802761E0,-4.984274864E0
4.988369370E0,1.149297714E0,-1.608802319E0,-4.411274910E0
4.990872141E0,1.121247768E0,-1.651853085E0,-3.897374630E0
4.993374911E0,1.181247711E0,-1.658752918E0,-3.374324799E0
4.995877755E0,1.551970005E0,-1.717609406E0,-2.664440632E0
4.998380531E0,1.590757608E0,-1.674202442E0,-2.005067825E0
5.000883300E0,1.707372665E0,-1.521832943E0,-1.403542995E0
5.003386069E0,1.895969152E0,-1.460209370E0,-7.962658405E-1
5.005888844E0,1.981020689E0,-1.417645454E0,-2.509210110E-1
5.008391613E0,2.070350885E0,-1.407868862E0,2.327675819E-1
5.010894592E0,2.123285055E0,-1.430460930E0,6.287772655E-1
5.013397363E0,1.996141195E0,-1.412961006E0,8.898704052E-1
5.015900132E0,1.934191227E0,-1.453010559E0,1.155820131E0
5.018402902E0,1.773241282E0,-1.598960876E0,1.279870272E0
5.020905671E0,1.574191093E0,-1.736061096E0,1.342870474E0
5.023408515E0,1.423141241E0,-1.942010880E0,1.251820326E0
5.025911286E0,1.340191126E0,-2.224010468E0,1.148770571E0
5.028414055E0,1.234141111E0,-2.504961014E0,8.997704983E-1
5.030916825E0,1.148191214E0,-2.714961052E0,4.707703590E-1
5.033419823E0,1.340191364E0,-3.181734562E0,-2.893183231E-1
5.035922382E0,1.263899803E0,-3.602005959E0,-8.035321236E-1
5.038425380E0,1.225318670E0,-3.922817230E0,-1.297538042E0
5.040928146E0,1.317913532E0,-4.123892784E0,-1.870592952E0
5.043430916E0,1.379617453E0,-4.250308990E0,-2.546822071E0
5.045933760E0,1.474829674E0,-4.284587860E0,-3.251156330E0
5.048436536E0,1.681414366E0,-4.274124622E0,-4.065962315E0
5.050939305E0,1.911364317E0,-4.269024372E0,-5.016962051E0
5.053442104E0,2.205992460E0,-4.310740948E0,-5.962315559E0
5.055944873E0,2.453042507E0,-4.305790424E0,-6.913315773E0
5.058447871E0,2.574992418E0,-4.375690937E0,-7.711315632E0
5.060950642E0,2.655992508E0,-4.435690403E0,-8.420366287E0
5.063453411E0,2.750042439E0,-4.514740467E0,-9.009265900E0
5.065956181E0,2.754092455E0,-4.610741138E0,-9.212366104E0
5.068459025E0,2.790092468E0,-4.753691196E0,-9.172315598E0
5.070961719E0,2.843042612E0,-4.837690830E0,-8.951366425E0
5.073464563E0,3.024280548E0,-5.063675404E0,-8.631359100E0
5.075967334E0,3.148361206E0,-5.198034286E0,-7.909283638E0
5.078470104E0,3.330873728E0,-5.244647980E0,-7.047978401E0
5.080973102E0,3.590523243E0,-5.251525402E0,-6.162773132E0
5.083475878E0,3.831090450E0,-5.293911457E0,-5.179805756E0
5.085978647E0,3.985668659E0,-5.326753616E0,-4.157133102E0
5.088481416E0,4.167960644E0,-5.292713165E0,-3.245251656E0
5.090984186E0,4.412016869E0,-5.348145485E0,-2.397488117E0
5.093487000E0,4.577170372E0,-5.412415504E0,-1.659824014E0
5.095989771E0,4.756591320E0,-5.495448589E0,-1.050776720E0
5.098492535E0,4.925945282E0,-5.524943352E0,-5.762119293E-1
5.100995304E0,5.143895149E0,-5.493893623E0,-2.262618542E-1
5.103498074E0,5.306945324E0,-5.555994034E0,7.973814011E-2
5.106000843E0,5.413895130E0,-5.577893257E0,3.576881886E-1
5.108503841E0,5.547995090E0,-5.519993782E0,6.047379971E-1
5.111006612E0,5.715995312E0,-5.450993538E0,6.957881451E-1
5.113509381E0,5.724995136E0,-5.562893867E0,6.837880611E-1
5.116012226E0,5.593894958E0,-5.754893303E0,5.927383900E-1
5.118514997E0,5.632424355E0,-5.929933548E0,7.222566605E-1
5.121017766E0,5.952210426E0,-5.804768562E0,5.642077923E-1
5.123520549E0,6.332117081E0,-5.633018970E0,3.361063004E-1
5.126023318E0,6.382309914E0,-5.557136059E0,6.466245651E-2
5.128526317E0,6.512044430E0,-5.295980930E0,-3.183932304E-1
5.131029088E0,6.547634125E0,-4.950571060E0,-7.649972439E-1
5.133531862E0,6.552550316E0,-4.695049763E0,-1.261580706E0
5.136034631E0,6.670540810E0,-4.349751472E0,-1.823525071E0
5.138537405E0,6.640219212E0,-4.017698765E0,-2.436309338E0
5.141040175E0,6.529128075E0,-3.867585182E0,-3.079515457E0
5.143543000E0,6.404788971E0,-3.771609306E0,-3.709412813E0
5.146045771E0,6.305427551E0,-3.529057503E0,-4.308183670E0
5.148548769E0,6.149427414E0,-3.469057083E0,-4.998183250E0
5.151051540E0,5.867427349E0,-3.433056831E0,-5.568183422E0
5.153554310E0,5.699427128E0,-3.514957428E0,-6.109233379E0
5.156057079E0,5.639427185E0,-3.742056847E0,-6.727233410E0
5.158559848E0,5.529477119E0,-3.735007286E0,-7.278183460E0
5.161062617E0,5.355477333E0,-3.879007339E0,-7.774233341E0
5.163565461E0,5.336427212E0,-4.210957527E0,-8.284233093E0
5.166068237E0,5.394846439E0,-4.575016022E0,-8.696238518E0
5.168571006E0,5.238825798E0,-4.842690945E0,-8.772702217E0
5.171073775E0,5.126086235E0,-5.153560162E0,-8.781532288E0
5.173576544E0,5.077702999E0,-5.536442280E0,-8.698222160E0
5.176079542E0,5.019511223E0,-5.945003510E0,-8.579654694E0
5.178582319E0,4.887645245E0,-6.402200222E0,-8.527748108E0
5.181085088E0,4.574763298E0,-6.692845821E0,-8.394286156E0
5.183587857E0,4.267515182E0,-6.921937466E0,-8.275580406E0
